aX,aY,aZ,gX,gY,gZ
-0.387,-1.346,1.241,1.160,45.410,8.423
-0.434,-1.585,1.153,5.798,49.500,-5.066
-0.373,-1.585,0.938,7.568,58.899,-17.090
-0.255,-1.347,0.854,4.883,85.754,-32.410
0.019,-0.966,0.885,-5.798,96.375,-27.832
0.193,-1.003,1.076,-33.447,84.717,-14.893
0.497,-0.524,0.901,-33.203,62.561,-17.334
0.643,0.009,0.690,7.019,39.551,-14.526
0.854,1.249,0.518,31.982,38.574,-0.732
0.915,1.522,0.581,44.556,36.560,24.292
0.956,1.232,0.824,-25.452,-4.150,45.959
0.838,0.647,0.836,-113.037,-53.101,7.446
0.587,0.823,0.357,-233.276,-96.497,-91.492
-0.335,0.892,0.291,-199.280,-44.312,-127.930
-0.941,1.358,0.871,-65.125,106.506,-177.673
-1.578,2.869,2.359,-8.240,142.700,-141.235
-1.150,2.589,2.828,99.487,50.354,65.125
0.582,0.514,1.872,100.342,-53.955,143.188
1.125,-0.365,0.824,20.630,-177.490,146.851
1.031,-0.937,-0.553,11.963,-149.231,100.952
0.770,-0.724,-0.471,24.353,-82.275,51.086
0.329,-0.178,0.427,27.222,35.889,-7.751
0.162,-0.016,0.935,17.944,60.974,-15.686
0.029,0.118,1.289,6.226,47.363,-13.977
-0.043,0.336,1.277,5.127,25.574,-6.165
0.042,0.274,1.128,12.573,2.747,17.273
0.235,-0.041,1.023,12.939,0.793,21.973
0.267,-0.105,1.011,3.418,-1.770,13.611
0.220,-0.047,0.999,1.892,-1.587,8.057
0.181,0.029,1.016,8.972,2.502,5.859
0.154,0.033,1.062,14.160,5.371,9.094
0.191,-0.047,1.125,18.250,7.812,11.841
0.228,-0.126,1.158,19.226,0.916,6.409
0.177,-0.108,0.999,15.320,-7.019,0.122
0.109,-0.056,0.906,6.592,-12.512,-6.409
0.020,-0.015,0.853,5.310,-8.606,-6.104
0.018,-0.039,0.874,4.089,2.136,-5.127
0.045,-0.057,0.943,0.977,5.371,-6.165
0.044,-0.037,0.946,-3.113,7.568,-8.667
-0.005,0.063,0.969,-1.648,9.094,-8.179
-0.022,0.066,1.024,0.977,7.935,-2.686
0.007,0.020,1.031,1.282,3.052,0.000
0.035,0.005,0.962,1.099,-2.014,1.953
0.054,-0.004,0.906,-2.075,-2.808,3.662
0.053,0.018,0.965,-3.235,0.061,3.906
0.051,0.032,1.026,-0.854,0.061,6.836
0.101,-0.023,0.999,0.854,-3.784,8.606
0.137,-0.068,0.898,-1.343,-7.935,7.446
0.167,-0.088,0.791,-3.357,-2.441,4.700
0.160,-0.075,0.897,-2.197,12.268,-0.732
0.141,-0.034,1.123,-1.953,10.864,-2.197
0.134,-0.028,1.086,-2.869,3.479,-2.625
0.115,0.008,0.873,-5.005,-7.568,-2.808
0.115,0.014,0.842,-4.822,-4.761,-2.075
0.130,-0.013,0.896,0.732,6.775,0.488
0.150,-0.050,1.037,1.587,6.409,0.366
0.129,-0.015,1.010,-5.188,-3.235,-0.122
0.093,0.006,0.899,-6.958,-3.418,0.854
0.100,-0.019,0.928,-4.700,7.141,0.183
0.119,0.000,1.111,-3.540,9.827,-1.160
0.112,0.013,1.163,-0.488,1.709,-0.610
0.082,0.024,1.070,0.427,-4.456,0.488
0.080,0.018,1.007,1.465,-7.263,1.404
0.087,0.006,0.980,3.662,-2.258,0.977
0.103,0.001,1.015,2.197,1.038,0.061
0.096,0.001,1.041,-0.183,2.686,-1.282
0.064,0.045,1.051,0.916,1.526,-1.526
0.060,0.069,1.035,2.319,-1.770,2.258
0.086,0.012,1.002,1.953,-3.357,4.639
0.099,-0.009,0.972,0.366,-5.188,5.310
0.102,-0.007,0.911,-2.747,-5.859,4.089
0.105,-0.023,0.939,-2.747,-3.479,3.784
0.106,-0.034,0.980,-4.761,-0.427,1.709
0.103,-0.009,1.010,-5.676,-0.793,0.305
0.102,0.005,1.006,-5.249,-2.563,-0.549
0.100,0.017,0.995,-4.333,-3.174,0.122
0.096,0.003,0.990,-1.099,-0.488,0.305
0.089,0.014,1.018,0.549,1.953,-0.977
0.092,0.032,1.039,1.770,1.343,-1.526
0.106,0.023,1.006,1.587,-1.282,-0.244
0.108,0.015,0.970,0.977,-2.869,0.793
0.106,0.018,0.952,0.000,-0.305,1.465
0.113,-0.011,0.977,0.732,2.075,1.404
0.116,-0.015,0.993,0.549,4.089,-0.916
0.099,0.034,1.031,0.305,4.028,-1.526
0.095,0.043,1.054,2.197,0.916,0.305
0.105,0.014,1.042,2.380,-1.892,1.221
0.107,-0.013,1.004,1.587,-4.761,0.732
0.103,-0.020,0.942,0.000,-4.272,-0.732
0.100,0.002,0.943,-1.770,-2.991,-1.770
0.105,-0.001,0.987,-2.319,-0.916,-1.038
0.119,-0.036,0.987,-2.319,-0.977,-0.793
0.128,-0.057,0.966,-1.526,0.793,-4.333
0.100,-0.006,0.954,-1.160,3.418,-6.531
0.069,0.034,0.991,-1.770,6.714,-6.653
0.032,0.091,1.109,-2.258,5.005,-4.028
0.048,0.059,1.131,-2.197,-6.287,2.625
0.092,-0.014,0.981,-2.014,-11.719,3.357
0.096,-0.018,0.899,-2.747,-9.888,0.427
0.071,0.020,0.904,-2.686,-3.967,-0.977
0.057,0.029,0.977,-2.075,3.906,-1.221
0.065,0.032,1.047,-2.380,2.258,-0.671
0.078,0.036,1.019,-2.319,-1.038,0.305
0.090,0.026,0.991,0.366,-2.930,2.563
0.103,-0.010,1.016,1.221,-2.136,2.441
0.107,-0.011,1.031,-0.610,-3.967,0.366
0.108,-0.005,0.974,-1.831,-5.920,-0.305
0.102,-0.004,0.932,-2.502,-4.395,-0.183
0.082,0.018,0.955,-1.709,-0.671,-0.061
0.077,0.027,1.012,-0.061,3.113,0.122
0.081,0.013,1.050,-0.122,1.221,0.000
0.088,0.012,1.032,-0.916,-3.662,-0.916
0.084,0.016,0.989,-0.977,-4.395,-0.977
0.076,0.028,0.996,-0.366,-3.845,-0.793
0.068,0.045,1.000,-0.122,-3.357,0.610
0.079,0.004,0.973,-0.061,-2.747,1.587
0.101,-0.016,0.966,2.075,1.587,0.061
0.124,-0.008,0.988,2.197,3.113,-1.404
0.113,0.005,0.996,-0.183,2.625,-2.625

-0.161,-1.537,0.998,-29.663,39.734,-12.146
-0.155,-1.606,0.853,-37.720,42.603,-27.344
-0.102,-1.087,0.637,-24.475,57.495,-35.583
0.014,-0.672,0.687,37.292,97.900,-13.000
0.484,-0.097,1.020,66.223,102.783,17.090
0.823,0.016,1.141,99.426,54.932,56.885
1.245,0.380,0.675,89.600,17.944,39.368
1.181,0.792,0.323,41.687,-7.996,-1.404
0.691,1.512,0.554,-152.588,-13.611,-81.787
0.427,1.458,0.994,-229.797,-12.756,-101.746
0.136,1.172,1.329,-215.698,-31.433,-140.564
-0.720,1.481,1.347,-163.574,-36.682,-161.926
-1.251,1.905,1.221,-80.505,-4.089,-130.127
-1.449,2.253,1.443,-27.710,19.165,-66.040
-0.852,1.744,1.564,74.463,-7.568,101.318
0.645,-0.004,0.956,78.979,-49.438,147.705
0.996,-0.668,0.439,37.781,-72.632,119.568
0.777,-0.833,0.107,32.410,-42.297,71.716
0.549,-0.455,0.266,32.471,17.700,4.883
0.322,-0.172,0.695,20.386,30.029,-1.099
0.289,-0.223,0.898,5.493,33.081,-2.197
0.250,-0.237,1.032,-12.451,27.100,-13.306
0.162,-0.083,1.159,-17.090,23.376,-19.592
0.110,-0.006,1.184,-28.931,14.954,-25.391
0.008,0.175,1.177,-28.870,13.000,-25.024
-0.029,0.246,1.214,-12.573,13.855,-12.939
-0.027,0.187,1.313,-4.333,11.353,-3.784
0.003,0.129,1.288,4.578,-2.014,7.141
0.059,0.033,1.096,7.568,-7.568,8.545
0.080,-0.010,0.994,12.634,-5.981,7.141
0.115,-0.080,0.959,13.184,-0.427,5.310
0.125,-0.116,1.000,11.475,4.517,3.113
0.072,-0.045,1.021,5.676,7.751,-4.822
0.024,0.005,1.043,3.723,7.996,-7.629
-0.009,0.019,1.078,0.793,3.479,-6.348
-0.021,-0.015,1.024,-0.732,-1.465,-4.883
-0.016,-0.019,0.932,-3.235,-5.371,-3.540
-0.000,0.053,0.831,-3.601,-1.709,-2.380
0.014,0.056,0.882,0.549,8.362,4.089
0.030,-0.012,0.984,3.113,9.827,6.042
0.019,-0.005,0.997,6.531,8.667,4.944
0.011,0.043,1.025,5.432,5.859,5.005
0.031,0.020,1.019,2.014,1.343,6.531
0.081,-0.045,0.965,-3.357,-5.188,8.667
0.097,-0.048,0.976,-3.174,-4.272,7.568
0.108,-0.052,1.018,-1.099,-1.282,3.418
0.096,-0.040,1.018,-2.014,-3.052,0.854
0.081,-0.011,0.947,-4.150,-4.089,-2.014
0.056,0.036,0.918,-2.747,0.916,-1.709
0.063,0.041,0.998,0.732,9.338,1.282
0.110,-0.021,1.087,0.610,7.446,2.075
0.121,-0.035,1.051,-0.854,-0.854,-0.366
0.097,0.025,0.968,-0.549,-2.991,-1.038
0.083,0.039,0.964,1.221,-2.991,3.113
0.081,-0.010,1.025,1.892,-2.197,5.371
0.095,-0.041,1.053,2.747,-1.709,5.798
0.115,-0.054,0.996,0.732,-4.883,2.014
0.104,-0.034,0.945,-1.953,-5.981,-0.488
0.087,-0.024,0.931,-3.357,-1.770,-2.441
0.054,0.013,0.952,-3.052,0.916,-2.502
0.052,0.005,0.979,-0.122,6.042,-1.221
0.065,-0.006,1.065,2.441,6.836,-1.160
0.068,-0.002,1.081,2.869,0.610,-0.549
0.074,-0.015,1.009,1.709,-3.296,0.061
0.077,-0.045,0.958,-0.610,-4.150,-0.854
0.064,-0.031,0.922,-1.648,-1.709,-2.563
0.045,0.008,0.931,-0.549,3.479,-3.235
0.035,0.024,0.994,0.427,4.761,-1.526
0.054,0.000,1.016,1.038,4.395,0.183
0.078,-0.030,1.009,0.916,0.366,0.549
0.091,-0.021,0.949,0.183,-1.221,-0.610
0.076,0.001,0.940,0.549,0.427,-0.488
0.051,0.013,1.008,2.075,2.380,0.732
0.056,-0.001,1.039,2.991,1.221,2.747
0.086,-0.061,0.989,2.136,-1.038,2.136
0.089,-0.066,0.931,0.854,0.122,-2.747
0.058,0.018,0.913,-0.305,3.967,-4.700
0.047,0.051,0.979,-1.892,7.812,-4.395
0.053,0.042,1.065,-2.014,8.362,0.916
0.103,-0.024,1.116,-0.488,4.395,2.319
0.115,-0.040,1.058,2.197,-3.662,0.366
0.103,-0.031,0.945,1.831,-4.517,-1.099
0.090,-0.025,0.929,-1.892,-0.671,-3.296
0.058,0.024,0.992,-3.906,2.258,-3.845
0.058,0.028,1.054,-3.723,2.991,-1.404
0.087,-0.016,1.067,-2.319,-0.549,-0.061
0.096,-0.036,1.006,-0.427,-5.310,-0.488
0.080,-0.011,0.908,0.183,-3.113,-1.465
0.069,0.005,0.935,1.099,5.859,-1.587
0.083,0.002,1.048,1.221,7.629,-0.854
0.098,-0.025,1.068,0.916,6.775,-0.244
0.110,-0.033,1.053,0.854,2.563,-1.648
0.099,-0.011,0.992,1.099,1.648,-2.502
0.083,0.001,0.985,-0.305,1.953,-3.296
0.061,0.015,1.008,-1.160,2.380,-3.296
0.057,0.010,1.031,1.038,3.906,-3.174
0.055,0.012,1.052,2.747,3.174,-3.235
0.052,0.028,1.023,2.441,-2.258,-2.014
0.053,0.043,0.952,1.221,-4.517,-0.061
0.062,0.007,0.948,0.183,-4.944,2.075
0.069,-0.027,0.958,0.366,-2.441,2.319
0.067,-0.004,0.959,0.549,-1.526,0.916
0.065,0.012,0.960,-0.854,-1.282,0.793
0.077,-0.022,0.973,-1.953,-1.953,1.404
0.086,-0.027,0.963,-3.479,-2.869,0.549
0.088,-0.027,0.963,-3.174,-1.526,-0.183
0.082,-0.020,0.983,-2.197,0.549,-2.136
0.072,-0.002,1.010,-2.502,-0.305,-2.380
0.073,0.001,0.999,-3.052,-2.380,-1.465
0.076,0.008,0.987,-2.869,-1.404,-0.671
0.079,0.009,1.011,-0.183,1.709,0.916
0.086,-0.010,1.015,0.854,1.099,1.160
0.081,-0.003,0.978,0.488,-0.427,0.549
0.083,-0.007,0.971,-1.526,0.732,-0.122
0.090,-0.012,1.008,-1.221,2.869,-0.305
0.093,-0.006,1.040,-0.488,3.723,-1.160
0.082,0.016,1.034,-0.977,2.075,-1.221
0.073,0.016,1.010,0.854,0.122,-0.061
0.056,0.026,1.011,2.014,-0.183,0.854

-0.206,-1.241,1.328,-13.367,44.128,-15.259
-0.150,-1.506,1.211,-9.888,26.978,-7.507
0.008,-1.602,0.693,-3.418,27.527,-15.991
0.080,-1.282,0.509,1.831,57.007,-35.400
0.276,-0.548,0.640,-1.099,73.547,-23.743
0.444,-0.322,0.857,-13.611,65.125,28.809
0.702,0.175,0.938,-14.709,40.649,47.119
0.767,0.362,0.956,9.583,-2.808,31.738
0.761,0.864,0.950,14.954,-20.203,-1.465
0.698,1.109,0.824,-6.042,-37.415,-35.400
0.568,1.215,0.641,-113.037,-62.622,-73.120
0.202,0.902,0.508,-145.935,-59.326,-82.397
-0.021,0.677,0.601,-101.196,-11.536,-121.094
-0.753,1.224,0.862,-63.721,24.170,-141.785
-1.096,1.743,1.131,-19.836,76.599,-97.229
-0.912,1.803,1.997,7.080,69.092,-24.841
-0.405,1.167,2.047,47.058,-33.081,114.990
0.643,-0.207,0.681,45.776,-77.942,136.047
0.869,-0.541,0.159,44.128,-42.664,93.323
0.840,-0.568,0.513,48.889,1.160,61.462
0.781,-0.506,0.890,46.692,23.193,36.682
0.558,-0.278,0.988,11.658,-3.235,5.920
0.420,-0.161,0.873,-3.418,-17.395,-3.113
0.299,-0.085,0.846,-10.376,-5.798,-10.864
0.133,-0.010,1.094,-10.986,5.249,-11.597
0.086,0.008,1.233,-14.282,6.714,-12.268
0.040,0.067,1.338,-13.062,-3.052,-11.902
0.021,0.092,1.196,-5.798,-24.414,-5.798
0.001,0.074,0.810,-0.366,-21.912,-2.075
0.013,0.078,0.765,12.451,7.019,5.188
0.127,-0.066,1.015,16.663,18.921,10.437
0.214,-0.167,1.113,12.878,15.564,9.583
0.292,-0.235,1.079,7.751,7.629,2.258
0.246,-0.193,1.053,3.601,1.038,-5.859
0.167,-0.152,1.036,-1.953,-9.399,-15.137
0.013,-0.053,0.952,-4.822,-12.268,-17.761
-0.031,-0.014,0.901,-7.324,-6.531,-19.592
-0.077,0.127,0.891,-6.348,0.427,-18.250
-0.076,0.151,0.958,0.732,11.108,-3.845
-0.011,-0.014,1.072,4.028,10.681,3.296
0.009,-0.045,1.053,2.686,3.113,5.432
-0.000,0.047,0.979,0.000,0.854,4.944
0.021,0.051,0.987,-0.549,0.000,10.437
0.151,-0.096,1.013,0.916,-2.625,13.367
0.206,-0.155,0.980,1.343,-7.629,13.672
0.223,-0.177,0.917,-2.808,-13.306,7.019
0.166,-0.150,0.867,-4.150,-9.399,1.953
0.121,-0.116,0.905,-3.174,3.967,-6.592
0.046,0.037,1.012,-2.869,7.874,-8.179
0.033,0.101,1.061,-0.549,6.348,-1.099
0.076,-0.005,1.080,0.671,1.831,4.517
0.105,-0.067,1.038,0.549,-4.700,6.653
0.123,-0.098,0.988,0.793,-3.906,4.517
0.109,-0.065,0.983,0.061,-2.747,1.892
0.078,0.033,0.986,-1.343,-1.221,0.671
0.094,-0.015,1.031,-0.549,0.366,3.418
0.130,-0.088,1.055,1.038,0.549,4.211
0.154,-0.111,0.959,0.671,0.671,0.916
0.120,-0.040,0.937,2.014,6.836,-3.296
0.071,0.045,1.085,2.930,7.324,-1.221
0.087,0.010,1.147,-1.343,-9.583,5.737
0.146,-0.095,0.952,-4.211,-19.470,6.775
0.150,-0.121,0.814,-5.554,-13.855,1.099
0.102,-0.037,0.884,-5.005,-1.892,-2.686
0.079,-0.002,1.030,-4.028,7.446,-4.089
0.072,0.011,1.129,-0.061,6.226,-0.916
0.083,-0.039,1.081,1.526,-0.061,0.977
0.087,-0.044,0.987,0.244,-6.531,0.122
0.063,0.004,0.874,-0.549,-2.808,-0.732
0.049,0.010,0.940,2.991,10.254,0.488
0.057,-0.001,1.088,3.540,10.132,1.160
0.072,-0.017,1.056,0.854,-0.488,2.808
0.112,-0.065,0.940,-0.549,-3.601,3.113
0.130,-0.081,0.918,-1.709,-3.601,2.563
0.123,-0.041,0.959,-3.479,1.526,-0.916
0.109,-0.019,1.020,-2.686,3.967,-1.892
0.104,-0.024,1.077,-0.854,-0.610,-0.305
0.127,-0.041,1.053,-2.136,-7.263,0.549
0.133,-0.052,0.988,-6.042,-14.648,0.000
0.118,-0.048,0.891,-5.920,-11.780,-1.526
0.115,-0.042,0.909,-2.380,0.183,-3.906
0.119,-0.039,1.009,-1.648,3.174,-4.456
0.120,-0.043,1.023,-0.916,1.221,-4.089
0.103,-0.046,0.983,-1.282,-0.183,-4.272
0.085,-0.018,0.980,-3.113,0.916,-5.066
0.059,0.028,1.046,-2.563,1.953,-4.272
0.071,0.004,1.068,-0.977,1.404,-2.563
0.089,-0.039,1.039,1.587,-3.906,-1.282
0.092,-0.061,0.929,1.282,-4.517,-2.625
0.073,-0.028,0.924,-0.549,0.977,-5.005
0.023,0.053,0.998,-0.916,4.395,-3.845
0.019,0.029,1.059,0.793,7.141,1.099
0.051,-0.012,1.109,1.892,4.517,2.136
0.064,-0.013,1.084,0.977,-4.883,3.235
0.078,-0.021,1.007,0.061,-8.179,3.601
0.077,-0.011,0.981,-0.549,-9.216,3.479
0.098,-0.048,0.991,-1.343,-7.019,3.479
0.110,-0.063,0.968,-1.587,-6.226,2.747
0.113,-0.052,0.941,0.305,-1.770,-0.488
0.091,-0.039,0.969,1.648,1.465,-1.709
0.075,-0.016,0.986,-0.061,2.869,-2.625
0.074,-0.001,1.003,-1.648,2.258,-1.526
0.089,-0.032,1.024,-1.709,0.549,0.549
0.128,-0.061,1.022,-1.099,-1.221,0.061
0.134,-0.069,0.980,-0.854,-2.563,-2.686
0.096,-0.037,0.923,-1.160,-0.366,-4.578
0.067,0.005,0.933,-3.235,5.798,-5.676
0.052,0.040,1.029,-3.723,6.958,-3.845
0.071,0.022,1.054,-3.174,5.249,-1.099
0.090,-0.008,1.037,0.183,-1.892,3.052
0.097,-0.020,0.975,1.648,-3.357,3.540
0.095,-0.043,0.981,1.587,-2.075,2.747
0.089,-0.038,0.991,0.061,-1.953,0.854
0.085,-0.017,0.985,-2.380,-2.136,-0.977
0.089,-0.023,0.979,-2.197,-2.075,-0.671
0.090,-0.021,0.973,-1.770,-1.953,-0.549
0.100,-0.047,0.977,-1.404,-1.160,-0.549
0.114,-0.059,0.990,-0.427,0.488,-2.136
0.115,-0.024,1.005,-1.099,0.366,-3.540

-0.159,-1.514,1.137,12.268,61.584,2.258
-0.046,-1.637,1.180,43.945,73.120,-3.052
0.225,-1.368,0.975,39.551,67.444,-13.672
0.296,-0.900,0.846,-3.113,60.181,-26.489
0.385,0.105,1.021,-17.944,57.617,-5.737
0.474,0.215,1.164,-14.160,23.987,62.195
0.693,-0.120,1.200,-14.221,-10.620,64.758
0.832,-0.020,0.878,-27.344,-81.482,1.221
1.012,0.144,-0.164,-39.856,-83.008,-42.175
0.951,0.158,-0.377,-60.669,-46.021,-94.116
0.352,0.858,0.617,-102.295,92.896,-208.130
-0.214,1.594,1.453,-106.445,137.634,-239.929
-0.878,2.263,2.096,-80.078,102.112,-173.950
-1.402,2.232,2.510,-44.434,43.152,-84.167
-1.012,1.552,2.095,30.518,-86.609,84.595
0.184,0.244,0.555,44.800,-122.559,122.498
0.539,-0.192,-0.002,29.358,-87.769,109.863
0.664,-0.455,-0.004,25.940,-35.767,83.069
0.641,-0.366,0.427,28.259,36.011,43.762
0.568,-0.376,0.987,22.400,37.109,34.668
0.487,-0.421,1.085,12.756,18.982,9.338
0.297,-0.207,1.212,11.047,12.390,-6.897
0.237,-0.063,1.283,5.920,5.249,-17.029
0.220,-0.030,1.243,-10.559,-15.991,-16.541
0.197,-0.018,1.009,-13.245,-20.081,-15.320
0.148,0.033,1.000,-7.080,-12.390,-14.221
0.062,0.182,1.098,-3.174,-10.925,-11.658
0.097,0.148,1.118,1.831,-22.766,2.747
0.214,-0.098,0.903,1.282,-32.166,7.202
0.237,-0.177,0.712,-2.197,-30.640,1.587
0.192,-0.152,0.563,-3.845,-14.954,-6.104
0.144,-0.065,0.709,-5.310,24.048,-16.907
0.088,0.021,1.274,-4.883,32.043,-16.541
0.076,0.006,1.426,-3.479,26.428,-13.367
0.050,-0.013,1.407,2.136,-3.845,-9.155
-0.037,0.064,1.084,4.028,-14.465,-8.911
-0.060,0.068,0.949,3.235,-11.414,-3.723
-0.051,0.032,0.922,5.371,0.244,-1.404
-0.017,0.034,1.047,13.672,17.639,0.854
0.043,-0.001,1.198,14.404,13.245,2.686
0.065,-0.041,1.131,7.385,-9.705,6.836
0.087,-0.058,0.812,3.052,-14.954,6.897
0.085,-0.065,0.764,0.305,-1.160,3.967
0.091,-0.043,0.956,-0.061,6.409,1.953
0.104,-0.047,1.044,-0.671,8.179,0.977
0.113,-0.068,1.064,-1.404,-2.808,0.183
0.117,-0.011,0.923,-1.709,-9.460,0.305
0.114,-0.013,0.844,-1.709,-8.301,4.150
0.109,-0.053,0.919,-0.793,-0.793,4.395
0.105,-0.063,1.010,0.061,8.118,0.732
0.113,-0.014,1.073,0.244,6.042,-0.549
0.127,-0.021,1.057,-2.075,-6.348,2.258
0.134,-0.091,0.978,-5.737,-12.878,2.808
0.115,-0.076,0.906,-8.850,-14.038,-1.038
0.092,-0.031,0.887,-6.897,-6.531,-2.441
0.111,-0.037,0.965,-1.404,5.737,-3.296
0.121,-0.028,1.000,-1.160,5.127,-3.235
0.109,-0.024,0.987,-1.465,2.869,-2.441
0.065,-0.019,0.982,-2.686,-1.526,-0.916
0.046,0.000,0.946,-4.028,-2.747,-1.038
0.049,0.004,0.916,-2.808,4.272,-0.305
0.115,-0.042,0.958,-0.671,9.888,0.244
0.132,-0.042,1.016,0.732,14.038,-0.061
0.100,0.003,1.127,1.404,11.963,-0.061
0.080,0.015,1.141,2.869,1.892,2.441
0.102,-0.039,1.073,3.113,-2.747,3.845
0.120,-0.071,1.026,0.977,-4.211,1.282
0.112,-0.042,1.013,1.282,-1.953,-1.404
0.089,-0.006,1.021,2.014,-0.854,-2.869
0.082,-0.004,1.006,0.793,-4.333,-0.671
0.097,-0.047,0.997,0.183,-6.470,1.160
0.106,-0.066,0.985,-4.700,-9.827,-0.793
0.093,-0.013,0.928,-7.080,-9.460,-2.625
0.087,0.005,0.937,-2.930,-0.183,-1.953
0.118,-0.060,1.108,0.366,2.319,-0.793
0.126,-0.070,1.118,0.732,-8.545,-2.075
0.087,-0.015,0.975,-1.587,-14.954,-3.296
0.060,0.022,0.911,-6.104,-15.442,-3.174
0.024,0.022,0.944,-5.066,-8.911,-1.953
0.031,0.010,1.024,0.977,0.793,0.549
0.062,-0.005,1.039,3.113,-0.244,1.587
0.060,-0.001,0.984,4.944,-1.831,2.380
0.066,-0.014,0.974,7.080,-0.183,3.784
0.079,-0.031,0.986,5.249,-0.244,4.028
0.090,-0.052,0.980,-0.549,-2.869,2.869
0.071,-0.049,0.960,-1.953,-2.380,1.160
0.060,-0.019,0.982,-0.916,0.488,-0.549
0.085,-0.032,1.011,-0.854,-0.732,-0.061
0.099,-0.059,0.981,-3.967,-5.981,-1.099
0.076,-0.041,0.937,-5.066,-6.348,-2.808
0.046,0.001,0.948,-4.517,-2.502,-3.418
0.022,0.052,1.036,-2.869,-0.732,-0.977
0.043,0.021,1.083,1.099,-3.784,5.676
0.100,-0.067,1.073,1.465,-8.850,6.592
0.106,-0.074,0.991,0.549,-13.794,5.371
0.078,-0.035,0.806,-0.916,-12.207,0.977
0.071,-0.019,0.839,-1.221,-3.967,-0.061
0.076,-0.028,0.947,-2.625,9.338,0.122
0.093,-0.052,1.113,-2.808,8.667,-0.549
0.087,-0.051,1.104,-3.052,0.183,-3.113
0.042,0.012,1.022,-1.953,-2.502,-3.967
0.033,0.035,1.005,-1.282,-4.456,-0.916
0.056,0.008,1.013,-1.038,-4.822,1.526
0.071,-0.024,1.014,1.343,-4.028,3.052
0.070,-0.053,0.990,1.404,-2.686,1.343
0.061,-0.024,0.980,1.099,1.099,-1.892
0.057,-0.008,0.998,1.221,2.258,-1.709
0.064,-0.010,1.007,1.343,2.197,-0.977
0.068,-0.017,1.008,-0.427,0.183,0.183
0.063,-0.048,1.000,-1.465,-0.854,-0.183
0.056,-0.028,0.986,-2.014,-2.502,-2.014
0.039,0.032,0.967,-1.526,-2.686,-1.221
0.044,0.007,0.980,0.244,-2.136,2.747
0.084,-0.059,0.995,0.305,-2.747,3.235
0.097,-0.065,0.976,-0.549,-3.052,0.610
0.082,-0.037,0.956,-0.610,-1.282,-1.282
0.063,0.000,0.974,-0.427,1.465,-2.441
0.049,0.005,1.039,-0.854,0.610,-0.793
0.063,-0.029,1.058,-2.686,-6.287,1.282

-0.348,-1.209,1.325,-10.132,19.531,-2.014
-0.320,-1.386,1.318,-12.695,14.282,-5.920
-0.220,-1.593,1.156,-11.841,14.099,-15.808
-0.190,-1.469,0.988,-11.963,26.611,-51.086
-0.153,-0.823,0.828,-12.573,40.833,-61.401
-0.102,-0.574,0.913,-8.057,56.335,-36.499
0.140,-0.312,0.992,-4.883,46.875,-11.719
0.314,-0.182,0.885,6.104,11.536,20.569
0.656,0.251,0.655,20.752,-0.427,18.188
0.760,0.523,0.480,36.133,-3.784,3.479
0.804,0.755,0.301,10.132,20.386,-44.495
0.754,1.237,0.304,-34.973,44.189,-62.561
0.691,1.253,0.615,-94.543,89.111,-66.162
0.373,0.478,1.587,-95.825,90.942,-82.275
-0.013,0.624,1.773,-47.607,61.951,-155.396
-0.877,1.855,1.793,-5.676,46.143,-152.893
-0.962,1.955,1.632,41.077,-30.273,-25.879
-0.290,0.967,0.512,29.053,-77.209,45.837
0.139,0.315,0.088,-15.808,-79.041,104.797
0.570,-0.511,0.317,-19.775,-41.199,90.515
0.567,-0.474,0.646,-12.939,-4.700,61.584
0.383,-0.203,1.082,-8.057,28.320,14.038
0.270,-0.111,1.224,-8.240,31.189,2.441
0.162,0.005,1.362,-1.587,20.020,-6.409
0.027,0.189,1.429,0.488,3.906,-4.028
0.032,0.159,1.347,1.648,-31.128,8.484
0.110,0.045,1.054,1.038,-43.945,12.207
0.119,0.028,0.797,-3.235,-47.180,12.268
0.066,0.050,0.581,-2.502,-29.541,12.573
0.065,0.047,0.783,7.629,12.329,18.616
0.147,-0.102,1.110,13.672,17.578,19.836
0.173,-0.103,1.068,17.212,13.489,16.296
0.179,-0.079,0.987,12.634,3.601,7.263
0.187,-0.106,0.943,6.531,2.747,4.272
0.187,-0.125,0.989,-3.418,3.174,-1.831
0.123,-0.101,1.061,-4.272,2.869,-5.493
0.068,-0.032,1.066,-1.404,3.662,-10.864
0.006,0.042,1.160,-0.916,3.357,-10.437
0.009,0.044,1.185,-3.174,-5.981,-8.118
0.034,0.019,1.135,-4.639,-13.245,-6.897
0.038,0.004,0.990,-6.226,-23.010,-4.150
0.032,-0.021,0.711,-4.395,-15.808,-3.174
0.026,-0.002,0.766,-1.343,-1.221,-3.052
0.005,0.088,1.109,4.272,20.874,-1.343
0.017,0.082,1.199,5.920,18.555,2.747
0.046,0.002,1.201,7.812,-0.122,10.620
0.104,-0.114,1.072,6.104,-10.193,9.460
0.110,-0.091,0.948,-1.953,-21.667,2.930
0.093,-0.045,0.756,-1.648,-15.137,0.732
0.085,-0.040,0.858,5.737,8.728,-2.380
0.069,-0.026,1.092,7.019,10.681,-3.479
0.069,-0.010,1.054,3.540,-1.160,-3.479
0.085,-0.012,0.859,0.854,-3.845,-2.747
0.096,-0.023,0.840,-1.465,-1.465,-2.136
0.119,-0.085,0.965,-2.563,8.911,-2.197
0.111,-0.080,1.027,-1.831,11.047,-4.456
0.094,-0.051,1.058,-3.113,5.798,-9.216
0.062,-0.000,1.033,-3.540,1.770,-9.766
0.066,0.026,1.023,-1.831,-5.127,-7.141
0.066,0.018,0.925,-1.831,-8.179,-4.395
0.053,-0.008,0.887,-2.380,-4.028,-2.014
0.032,-0.020,0.940,-2.258,1.648,-2.869
0.026,-0.002,0.984,-1.038,8.240,-3.662
0.009,0.034,1.028,-0.488,7.996,-2.930
-0.000,0.071,1.042,-0.427,4.211,0.916
-0.000,0.052,1.088,0.061,2.075,3.967
0.016,0.006,1.109,1.160,0.122,6.165
0.044,-0.036,1.116,2.441,-5.005,5.188
0.076,-0.065,1.002,1.465,-8.301,2.686
0.057,-0.030,0.919,-1.587,-8.789,-1.221
0.021,0.009,0.903,-3.723,-5.371,-0.977
0.029,-0.008,0.946,-6.775,0.549,-0.366
0.071,-0.026,0.963,-7.202,2.319,-0.916
0.086,-0.018,0.955,-5.310,8.362,-2.625
0.099,0.026,1.067,-3.296,10.925,-2.625
0.105,0.033,1.142,0.793,3.418,0.549
0.100,0.015,1.106,0.854,-5.798,2.380
0.098,0.002,0.995,-0.366,-13.916,3.784
0.100,-0.026,0.913,-1.038,-12.268,4.211
0.108,-0.060,0.917,-0.061,-5.676,2.258
0.093,-0.033,0.944,-0.488,2.991,-2.869
0.046,0.044,1.007,-0.183,4.639,-2.869
0.046,0.015,1.037,1.160,3.235,0.366
0.069,-0.014,1.010,1.038,1.465,0.305
0.068,-0.006,0.992,-0.854,0.488,-1.404
0.044,0.019,0.984,-2.625,0.671,-1.892
0.034,0.015,0.992,-0.488,4.150,-1.343
0.040,0.044,1.054,2.441,5.676,-0.793
0.050,0.028,1.068,4.517,5.554,0.854
0.062,-0.002,1.079,7.385,3.296,2.502
0.064,0.001,1.078,7.141,0.305,1.709
0.057,0.014,1.039,3.357,-8.545,1.770
0.049,0.003,0.947,0.427,-11.658,2.686
0.052,0.000,0.933,-4.944,-12.329,3.357
0.064,-0.027,0.973,-5.859,-10.925,2.747
0.078,-0.046,0.995,-4.761,-8.240,-0.122
0.084,-0.026,0.975,-3.784,-7.629,-2.197
0.064,0.022,0.958,-1.038,-5.188,-2.502
0.043,0.020,0.943,0.549,-3.418,-0.305
0.052,-0.009,0.934,1.038,-1.648,1.160
0.061,-0.021,0.932,-1.831,2.014,-0.122
0.066,-0.019,0.981,-3.540,4.089,-1.160
0.065,-0.003,1.035,-2.197,4.944,-2.197
0.056,0.020,1.072,-1.221,1.709,-1.770
0.053,0.001,1.026,-2.075,-5.127,-1.221
0.049,-0.028,0.925,-3.174,-4.761,-2.258
0.049,-0.011,0.929,-3.906,1.221,-4.639
0.059,0.029,1.010,-2.808,2.747,-4.272
0.063,0.014,1.019,-2.686,0.671,-2.136
0.059,-0.024,0.986,-3.296,0.610,-2.563
0.055,-0.017,0.999,-3.723,2.075,-5.188
0.045,0.050,1.034,-5.066,0.000,-5.066
0.043,0.059,1.041,-6.531,-3.418,-3.052
0.049,0.028,1.041,-5.493,-8.179,1.587
0.064,-0.046,0.981,-3.357,-7.812,0.732
0.048,-0.026,0.944,0.793,-0.427,-4.883
0.007,0.064,0.968,1.343,3.662,-5.737
-0.000,0.085,1.007,0.977,5.615,-0.793
0.029,0.021,1.071,1.709,4.395,2.258

-0.189,-1.420,1.095,-19.287,-9.460,-3.662
-0.082,-1.573,1.095,-12.390,3.174,-24.109
0.068,-1.514,0.883,-6.836,8.606,-41.809
0.032,-1.080,0.632,-7.629,28.503,-67.139
0.046,-0.165,0.575,-3.662,47.546,-56.396
0.201,-0.094,0.903,20.996,61.768,-20.447
0.623,-0.207,1.310,29.175,38.818,-21.301
0.772,-0.053,1.086,20.081,-28.931,-61.279
0.801,0.913,0.152,12.207,-38.940,-80.627
0.671,1.400,-0.094,-24.109,21.912,-78.552
0.446,1.343,0.708,-64.209,59.570,-64.331
0.331,0.843,1.284,-109.314,72.205,-59.387
0.058,0.424,1.666,-128.113,39.612,-119.690
-1.045,1.560,1.837,-71.106,30.029,-156.372
-1.375,2.402,1.913,62.683,-3.906,-73.975
-0.661,1.710,0.957,70.923,-52.490,23.071
-0.015,0.710,0.215,9.827,-83.069,129.822
0.667,-0.584,0.075,-8.789,-42.786,118.408
0.737,-0.578,0.554,0.916,31.799,50.537
0.693,-0.419,1.166,2.136,32.715,26.062
0.585,-0.337,1.140,-10.071,3.540,-9.216
0.088,0.298,0.940,-9.094,-0.427,-17.883
-0.111,0.419,1.048,-3.967,4.333,-13.428
-0.147,0.282,1.247,1.038,3.662,9.583
-0.055,0.190,1.208,1.770,-4.822,16.968
0.053,0.079,1.128,0.366,-18.616,23.010
0.204,-0.051,0.851,-0.977,-18.005,20.752
0.218,-0.042,0.792,3.296,6.226,10.620
0.198,-0.006,1.013,5.859,20.691,6.165
0.188,-0.032,1.205,8.362,28.809,-1.709
0.141,0.004,1.311,10.193,19.409,-6.104
0.125,0.044,1.195,8.972,-6.348,-7.812
0.111,0.029,0.970,5.615,-13.916,-6.653
0.091,0.049,0.916,2.441,-16.724,-5.249
-0.004,0.050,0.905,0.244,-10.742,-1.404
-0.056,0.050,0.935,4.272,-3.906,-1.038
-0.085,0.045,0.938,12.451,6.653,-1.770
-0.047,0.035,0.874,12.939,10.437,-1.831
-0.009,0.025,0.915,8.911,18.677,-2.625
0.025,0.064,1.132,5.066,16.907,-3.113
0.023,0.070,1.159,-3.479,-3.723,-0.732
0.034,-0.014,0.983,-7.019,-13.123,0.244
0.037,-0.021,0.903,-7.263,-11.841,-3.418
0.033,0.036,0.900,-4.333,-4.883,-5.432
0.023,0.067,0.969,-1.709,3.967,-5.920
-0.016,0.097,1.071,-2.014,3.052,-4.028
-0.014,0.083,1.066,-3.540,-3.906,2.380
0.046,-0.000,1.024,-4.395,-5.920,3.967
0.073,-0.011,1.010,-4.944,-6.287,2.869
0.075,0.003,1.001,-2.502,-4.211,-3.601
0.030,0.115,0.967,-0.183,-3.418,-5.249
0.023,0.097,0.971,2.197,-4.089,1.038
0.042,-0.010,0.927,0.488,-5.981,2.808
0.038,0.002,0.881,-4.395,-2.686,-1.221
0.009,0.092,0.942,-4.578,3.601,-3.296
0.003,0.097,1.069,-1.404,11.353,-2.075
0.012,0.095,1.201,0.732,7.019,-0.122
0.021,0.082,1.159,3.967,-8.911,5.188
0.034,0.024,0.995,3.540,-14.526,5.798
0.036,0.029,0.906,1.465,-16.602,4.822
0.044,0.031,0.843,-1.282,-7.935,2.991
0.065,0.033,0.890,-1.099,-0.244,2.380
0.064,0.050,0.970,1.770,8.667,3.235
0.058,0.028,1.084,4.456,8.057,4.150
0.063,0.002,1.072,6.226,0.854,2.563
0.063,0.010,0.952,4.517,-2.014,0.488
0.059,0.024,0.925,-0.549,-0.671,-1.648
0.060,0.028,0.958,-1.709,1.770,-2.197
0.061,0.020,0.978,-1.587,4.700,-3.235
0.055,0.016,1.066,-0.671,10.376,-7.324
0.039,0.060,1.106,-0.793,9.277,-9.277
0.017,0.133,1.103,-2.991,-4.639,-4.761
0.013,0.116,1.002,-4.333,-12.085,1.709
0.034,0.035,0.957,-2.991,-12.207,6.714
0.067,-0.030,0.975,-0.488,-7.263,3.601
0.058,-0.004,0.984,0.732,-2.808,-3.357
0.015,0.054,0.928,-0.549,-3.723,-4.456
-0.005,0.097,0.887,-1.587,-1.953,-1.221
-0.003,0.076,0.942,-0.122,1.648,1.587
0.021,0.035,1.000,-0.122,4.333,2.502
0.050,-0.021,1.074,-1.343,2.441,0.061
0.041,0.002,1.066,-2.563,-1.587,-2.808
0.005,0.111,0.906,-6.226,-9.949,-3.906
0.003,0.122,0.885,-6.042,-7.324,-1.404
0.017,0.078,0.954,-1.465,4.700,3.357
0.052,-0.011,1.061,-1.160,5.432,2.930
0.066,-0.007,1.043,-2.197,-1.160,-0.610
0.072,0.028,0.941,-3.906,-4.272,-1.282
0.056,0.026,0.918,-3.784,0.305,-2.747
-0.003,0.098,1.009,-1.465,5.676,-3.845
-0.022,0.112,1.071,2.258,9.216,-1.526
0.012,0.075,1.134,3.296,5.920,0.671
0.041,0.046,1.086,-0.061,-6.531,2.441
0.055,0.028,0.919,-2.625,-8.057,1.648
0.057,0.015,0.939,-2.686,-3.479,0.488
0.063,0.004,1.014,0.366,6.653,-2.869
0.048,0.026,1.056,0.427,5.920,-4.761
0.030,0.056,1.011,0.366,1.831,-6.104
0.009,0.112,0.963,0.061,1.282,-4.883
0.010,0.096,0.983,0.244,2.014,-0.183
0.032,0.046,1.014,0.488,1.648,1.099
0.045,0.039,0.992,1.160,0.183,1.831
0.072,0.018,0.977,1.953,0.366,1.709
0.080,0.013,0.993,2.686,0.732,0.732
0.078,0.000,1.008,2.747,-0.244,-2.136
0.048,0.024,0.974,1.953,-1.526,-3.723
0.025,0.065,0.937,-1.831,-2.502,-4.211
-0.017,0.108,0.935,-3.845,-1.282,-2.686
-0.017,0.099,0.990,-3.296,1.099,2.014
0.045,0.020,1.059,-1.709,-0.610,3.601
0.078,-0.007,1.008,0.671,-4.272,1.770
0.074,0.016,0.913,0.916,-1.831,-0.977
0.040,0.062,0.958,0.977,2.502,-3.479
0.011,0.091,1.068,-0.488,2.075,-2.441
0.027,0.056,1.039,-3.174,-3.662,0.061
0.045,0.037,1.008,-4.395,-7.996,1.099
0.049,0.050,1.001,-2.258,-5.981,0.305
0.041,0.049,1.004,0.305,-3.113,-1.038
0.021,0.060,0.952,-0.793,-3.723,-1.404

-0.201,-1.068,1.310,5.310,23.193,-5.676
-0.100,-1.123,1.312,-1.038,11.292,-23.499
0.046,-0.917,1.113,-4.822,5.493,-37.048
0.103,-0.748,1.035,-2.625,7.202,-50.537
0.203,-0.388,0.859,0.488,9.216,-45.959
0.239,-0.148,0.701,14.771,16.663,-18.372
0.429,0.205,0.594,22.095,22.461,-3.967
0.533,0.304,0.619,-1.648,14.221,-5.859
0.629,0.521,0.569,-31.311,3.235,-22.095
0.652,0.715,0.427,-56.763,-1.099,-40.710
0.719,0.619,0.484,-58.289,41.321,-65.796
0.622,0.355,0.845,-44.556,76.721,-87.891
0.311,0.393,1.271,-15.808,113.770,-174.561
-0.828,1.724,2.131,-8.850,102.661,-196.533
-1.300,2.247,2.288,1.221,1.953,-98.999
-0.973,1.620,1.290,15.564,-60.730,-8.179
-0.286,0.818,0.583,18.921,-102.905,109.009
0.698,-0.507,-0.056,8.728,-73.242,110.718
0.807,-0.650,0.119,12.390,18.616,47.852
0.584,-0.287,0.806,15.503,44.800,18.555
0.400,-0.172,1.091,7.874,44.189,-8.240
0.088,0.012,1.348,5.493,25.452,-14.771
-0.047,0.183,1.227,1.770,0.916,-18.555
-0.159,0.326,1.038,-8.606,-31.555,-8.789
-0.208,0.345,0.761,-9.705,-33.264,3.113
-0.141,0.248,0.690,-6.226,-18.799,25.330
0.056,0.063,0.716,-4.211,-3.540,30.090
0.146,-0.051,0.883,6.226,30.334,26.489
0.248,-0.210,1.239,12.817,36.194,18.494
0.250,-0.136,1.244,16.541,18.799,1.221
0.162,0.035,1.069,10.803,7.996,-2.319
0.116,0.057,1.050,-3.357,0.671,-2.197
0.097,-0.024,1.129,-7.324,0.854,-2.563
0.099,-0.030,1.127,-8.728,0.732,-5.371
0.075,0.017,1.086,-1.587,-0.671,-11.047
-0.006,0.081,0.991,3.479,-2.136,-9.888
-0.023,0.109,0.955,4.211,-5.310,-1.587
-0.002,0.046,0.921,2.258,-2.686,1.465
0.008,0.032,0.961,0.793,6.592,-0.488
0.013,0.072,1.089,-1.709,5.127,-0.244
0.029,0.045,1.093,-6.042,-7.568,4.700
0.071,-0.018,1.003,-5.371,-11.841,4.578
0.071,-0.010,0.932,-3.296,-14.099,1.587
0.049,0.046,0.813,-3.052,-10.681,1.648
0.052,0.025,0.863,-3.357,-2.869,2.258
0.071,0.026,1.096,-1.648,12.146,-1.648
0.065,0.046,1.131,-1.526,10.315,-3.906
0.053,0.050,1.086,-4.883,-4.639,-2.136
0.050,0.071,0.941,-4.395,-7.874,0.061
0.058,0.074,0.920,-0.427,-1.160,2.991
0.079,-0.004,1.036,0.244,3.845,2.686
0.094,-0.023,1.073,0.366,3.662,-2.014
0.075,0.033,0.961,-0.977,0.977,-4.944
0.045,0.092,0.917,-1.648,2.563,-4.822
0.020,0.102,0.997,0.061,5.798,-1.221
0.033,0.062,1.068,1.465,7.263,2.075
0.049,0.033,1.097,0.366,0.671,3.906
0.080,0.017,0.994,-0.488,-3.845,3.235
0.095,0.015,0.924,-2.014,-1.770,0.366
0.085,0.018,1.032,-0.305,4.700,-1.282
0.055,0.028,1.140,4.395,5.493,-2.625
0.007,0.068,1.075,4.089,-2.747,-1.587
0.010,0.056,0.931,0.732,-10.254,0.793
0.045,0.058,0.829,-0.916,-3.906,0.183
0.050,0.069,0.925,-1.953,11.353,-0.549
0.020,0.091,1.163,0.000,11.597,0.916
0.017,0.080,1.180,2.014,5.981,3.662
0.033,0.054,1.112,3.479,-8.972,6.592
0.064,0.024,0.929,2.991,-10.803,5.554
0.067,-0.000,0.924,1.465,-4.028,2.869
0.067,-0.010,0.955,0.793,-0.916,1.160
0.055,0.033,0.949,-0.854,2.747,-0.916
0.034,0.071,0.995,-0.916,4.578,0.061
0.055,0.050,1.055,-0.061,3.174,2.991
0.113,-0.037,1.100,-0.549,-1.160,2.380
0.123,-0.044,1.058,-0.977,-5.798,-0.061
0.091,0.036,0.930,-0.549,-10.559,-5.859
0.065,0.070,0.887,-0.488,-9.949,-6.165
0.043,0.057,0.883,-1.953,-2.686,-2.930
0.043,0.019,1.000,-1.709,1.709,-2.563
0.054,0.031,1.046,-1.953,1.038,-3.418
0.057,0.059,1.052,-2.258,-3.235,-2.930
0.044,0.058,1.033,-2.441,-11.902,-0.916
0.019,0.052,0.946,-2.808,-13.794,-0.183
0.021,0.024,0.917,-1.282,-8.118,-0.061
0.038,0.004,0.929,-0.732,-4.028,-1.587
0.039,0.018,0.937,-1.831,0.122,-4.028
0.026,0.045,0.947,-2.014,1.526,-4.395
0.016,0.041,0.965,-1.404,6.104,-4.272
0.022,0.024,1.018,-1.404,7.935,-4.822
0.020,0.044,1.035,-1.770,8.545,-5.798
0.011,0.073,1.061,-1.343,5.981,-5.249
-0.003,0.104,1.100,-0.793,1.404,-2.991
0.002,0.085,1.058,-1.099,-9.644,2.686
0.035,0.003,0.960,-1.282,-11.292,3.662
0.051,0.011,0.934,-2.380,-8.240,1.831
0.059,0.011,0.922,-2.014,-5.188,1.099
0.046,0.020,0.926,0.305,2.014,-1.343
0.012,0.055,1.001,0.183,5.432,-2.258
0.012,0.046,1.071,-0.488,5.310,-1.587
0.043,0.031,1.058,-0.671,0.488,-0.977
0.050,0.044,0.978,-1.465,-3.845,-0.854
0.043,0.046,0.943,-2.502,-0.122,-1.831
0.019,0.048,1.045,-1.648,3.052,-2.991
0.012,0.070,1.059,-1.099,-1.709,-3.418
0.010,0.089,0.950,-1.587,-4.456,-1.404
0.017,0.076,0.936,0.427,1.038,2.808
0.039,0.052,1.044,1.221,4.456,3.723
0.049,0.020,1.097,1.953,0.854,2.502
0.049,0.011,1.019,1.526,-5.066,0.488
0.034,0.030,0.936,-0.793,-10.010,-1.404
0.023,0.103,0.831,-5.981,-7.629,-2.319
0.036,0.075,0.900,-4.272,1.404,-0.366
0.055,0.022,1.034,2.136,14.954,0.732
0.074,0.011,1.156,3.418,11.230,-1.160
0.070,0.046,1.081,0.732,-4.944,-2.991
0.036,0.075,0.916,-1.648,-7.812,-2.197
0.016,0.088,0.933,-0.793,-0.977,0.244
0.019,0.046,1.052,1.099,0.549,1.892

-0.334,-1.408,1.607,-30.884,28.259,23.621
-0.144,-1.721,1.571,0.183,2.747,28.259
0.267,-1.703,0.987,29.785,-3.479,9.460
0.359,-1.123,0.562,51.758,27.466,-45.593
0.235,0.424,0.344,37.292,60.669,-45.959
0.181,0.895,0.730,-4.578,89.233,25.330
0.514,0.668,1.447,-27.222,57.434,62.927
0.817,0.062,1.302,-57.190,4.822,70.190
0.956,-0.392,0.764,-84.900,-29.358,-56.335
0.457,0.704,0.521,-45.044,28.992,-146.301
-0.052,1.462,1.173,45.349,127.869,-193.970
-1.041,1.986,2.040,46.631,100.342,-158.203
-1.103,2.084,1.735,28.870,-32.593,-30.457
-0.189,1.175,0.755,32.532,-74.890,40.588
0.358,0.377,0.509,25.879,-93.262,99.365
0.718,-0.373,0.026,18.616,-81.848,83.374
0.664,-0.358,-0.067,17.822,-22.644,35.400
0.449,-0.293,0.351,10.254,9.216,18.555
0.283,-0.188,0.717,-0.366,33.508,3.296
0.120,0.063,1.094,0.793,51.636,-13.306
-0.040,0.325,1.632,7.080,41.687,-6.104
-0.014,0.286,1.678,13.184,-6.531,13.550
0.086,0.174,1.318,12.634,-33.508,19.226
0.105,0.148,0.969,1.831,-62.195,27.466
0.172,-0.005,0.392,-2.930,-51.208,31.677
0.217,-0.140,0.439,1.892,12.146,27.771
0.316,-0.206,1.021,8.240,38.086,18.860
0.327,-0.159,1.250,11.597,47.180,7.996
0.301,-0.106,1.336,3.052,22.583,-11.047
0.157,0.069,1.176,-2.991,3.357,-16.296
0.096,0.144,1.090,-7.385,-23.376,-9.277
0.034,0.009,0.948,-9.277,-31.250,-2.014
0.015,-0.044,0.856,-9.583,-27.039,-0.366
-0.005,-0.023,0.845,-6.714,-14.771,-3.540
-0.011,0.002,0.948,-3.296,4.944,-7.690
-0.034,0.058,1.114,-1.099,6.470,-7.568
-0.040,0.041,1.109,2.563,0.000,-5.066
-0.036,0.014,0.934,1.282,-1.343,-4.761
-0.018,0.013,0.897,-1.465,10.986,-5.493
0.002,0.122,0.971,0.793,18.860,-5.493
-0.005,0.166,1.049,4.150,22.644,-2.625
0.034,0.070,1.087,5.554,10.132,10.132
0.086,-0.016,1.022,3.052,-0.549,14.282
0.148,-0.097,0.971,-3.601,-8.545,10.620
0.188,-0.137,0.944,-6.531,-6.348,4.028
0.146,-0.064,0.944,-4.578,3.357,-8.362
0.040,0.101,1.001,-2.014,6.897,-9.338
0.042,0.089,1.033,-2.625,1.831,-1.343
0.095,-0.004,1.031,-4.761,-4.089,1.160
0.101,0.009,1.013,-10.010,-14.221,-0.244
0.055,-0.002,0.940,-11.475,-15.991,-1.526
0.036,0.001,0.897,-11.292,-14.343,-3.357
0.027,0.055,0.871,-6.348,-1.404,-6.226
0.033,0.082,0.936,-3.601,6.897,-5.493
0.042,0.097,1.023,-1.465,12.268,0.122
0.052,0.034,1.099,-1.160,8.911,3.113
0.051,0.034,1.079,-1.587,0.122,4.089
0.086,0.021,1.053,-2.686,-1.953,4.456
0.113,-0.016,1.072,-1.831,-2.808,1.953
0.131,-0.018,1.012,0.122,-3.540,-0.854
0.115,-0.017,0.965,-0.671,-3.723,-5.676
0.043,0.035,0.890,-2.075,-1.770,-7.812
0.010,0.100,0.906,-3.235,2.258,-8.728
0.014,0.122,1.100,-1.038,11.108,-3.418
0.046,0.079,1.168,1.709,10.437,0.244
0.077,0.034,1.175,2.625,-1.404,2.380
0.076,-0.008,1.069,1.038,-8.301,1.038
0.054,0.009,0.975,-2.747,-16.724,-1.770
0.025,0.099,0.803,-3.723,-14.099,-1.587
0.023,0.090,0.853,-1.160,3.906,1.892
0.053,0.027,1.105,0.244,8.179,2.625
0.069,0.010,1.116,0.000,-1.831,1.648
0.064,0.011,0.895,-0.916,-6.531,0.488
0.045,0.027,0.831,-1.526,-5.432,-0.916
0.030,0.052,0.866,-1.404,7.446,-1.648
0.055,0.031,1.095,-1.343,10.803,-0.793
0.081,-0.000,1.124,-0.977,3.845,-2.258
0.073,0.038,0.970,0.244,0.122,-4.639
0.046,0.105,0.926,2.014,1.160,-3.357
0.021,0.101,1.024,2.014,2.686,0.732
0.034,0.058,1.093,0.305,-3.357,4.883
0.053,0.012,1.051,-1.953,-10.071,4.333
0.049,0.037,0.963,-3.723,-15.442,3.174
0.062,0.034,0.849,-4.883,-13.855,3.296
0.074,0.021,0.890,-3.601,-6.897,3.235
0.078,0.021,0.982,-0.854,3.418,1.160
0.055,-0.002,1.061,-1.648,2.380,-0.122
0.041,0.014,1.012,-2.563,-1.465,-3.174
0.033,0.056,0.912,-3.052,-0.427,-3.662
0.032,0.083,0.926,-3.784,6.714,-2.930
0.035,0.090,1.109,-1.892,9.094,-1.099
0.057,0.059,1.173,0.977,-0.183,2.319
0.097,-0.011,1.058,-0.549,-8.728,2.625
0.100,-0.022,0.953,-5.493,-15.015,-0.732
0.060,0.035,0.847,-5.920,-9.033,-3.601
0.027,0.081,0.927,-4.639,0.793,-5.859
-0.009,0.135,1.123,-1.648,9.766,-5.127
-0.005,0.119,1.126,0.610,5.554,-1.770
0.015,0.083,1.061,4.700,-5.859,5.310
0.062,0.010,0.889,4.639,-6.531,6.042
0.069,0.019,0.860,2.747,4.395,1.709
0.078,0.033,1.007,1.709,9.644,-0.061
0.082,0.016,1.071,-1.282,4.211,-1.160
0.078,0.022,0.977,-2.625,-1.343,-2.075
0.066,0.038,0.930,-3.113,-0.732,-4.150
0.030,0.097,0.997,-3.174,1.953,-4.822
0.018,0.126,1.047,-2.930,0.061,-0.916
0.047,0.067,1.074,-1.831,-3.540,2.808
0.073,0.029,1.028,-1.160,-7.019,4.883
0.083,0.017,0.973,-0.366,-6.226,2.441
0.057,0.048,0.944,0.366,-2.258,0.000
0.037,0.064,0.953,0.610,4.150,-2.014
0.019,0.099,0.996,0.732,5.676,-1.099
0.031,0.086,1.034,3.540,5.981,3.418
0.084,0.042,1.088,5.127,4.150,4.639
0.095,0.012,1.085,4.822,-1.831,2.869
0.071,0.012,1.008,3.662,-4.272,0.122
0.052,0.055,0.955,1.770,-5.310,-2.258
0.042,0.083,0.933,-0.488,-0.732,-1.404

-0.448,-0.926,1.362,-18.494,21.851,-0.488
-0.398,-1.123,1.294,-3.784,17.761,8.972
-0.137,-1.451,1.105,8.179,20.630,6.592
0.030,-1.474,1.081,16.541,28.809,-19.897
0.155,-0.931,0.993,6.958,27.466,-35.095
0.093,-0.450,0.899,-3.357,24.353,-38.696
0.105,0.036,0.961,4.944,24.292,-24.719
0.289,-0.035,1.087,12.390,-9.827,-0.610
0.753,0.341,0.656,-1.587,-42.480,1.953
0.830,0.717,0.057,-24.231,-62.988,2.136
0.556,0.693,-0.580,-54.260,26.123,-22.339
0.444,0.621,0.322,-33.630,138.733,-63.477
0.379,0.808,1.924,39.795,249.695,-143.799
-0.064,1.396,3.802,36.987,157.104,-149.109
-0.368,1.638,3.038,-26.978,-146.423,-92.041
-0.627,1.417,0.195,-32.043,-219.299,-40.955
-0.507,0.899,-0.614,2.136,-153.809,41.565
-0.048,0.132,-0.962,9.277,-78.064,53.955
0.151,0.005,-0.636,3.906,65.613,46.326
0.392,0.027,0.712,-0.916,107.849,40.039
0.497,-0.010,1.371,-6.592,99.243,33.752
0.538,-0.229,1.793,-8.362,60.974,26.550
0.446,-0.175,1.552,-8.362,21.423,14.954
0.329,-0.034,1.281,0.366,-13.733,-0.488
0.134,0.118,1.058,6.165,-12.573,-0.549
0.093,0.068,1.040,3.601,-10.254,1.465
0.032,0.071,0.967,-5.920,-13.733,-0.488
0.041,0.107,0.986,-19.348,-19.104,1.770
0.145,0.045,1.004,-17.700,-19.897,3.906
0.175,-0.002,0.978,-6.897,-12.817,3.174
0.108,0.060,0.973,-1.465,-5.737,1.404
0.060,0.081,1.032,5.676,4.150,3.174
0.035,0.042,1.087,4.028,3.052,5.066
0.069,-0.040,1.123,0.916,0.916,6.165
0.101,-0.113,1.179,0.000,-7.385,-0.183
0.032,-0.014,1.138,0.549,-15.747,-5.249
-0.047,0.089,1.012,-0.916,-22.278,-8.118
-0.132,0.143,0.989,-0.916,-14.954,-6.897
-0.112,0.106,1.041,1.526,-4.883,-3.601
-0.095,0.097,0.901,1.648,-4.700,-1.892
-0.100,0.120,0.835,4.883,4.639,3.723
-0.033,0.126,0.958,5.920,10.559,7.690
0.029,0.041,1.048,2.258,8.545,12.939
0.110,-0.072,1.073,-0.366,3.235,11.414
0.123,-0.088,1.047,-2.380,-1.465,8.301
0.102,-0.045,0.975,-3.723,-4.028,0.183
0.072,0.005,0.994,-1.709,-0.732,-3.235
0.034,0.084,1.032,3.174,2.197,-5.432
-0.018,0.102,1.083,3.357,-1.953,-2.441
-0.012,0.072,1.048,-2.258,-18.616,4.639
0.028,-0.014,0.828,-6.836,-23.804,5.920
0.042,-0.027,0.735,-5.005,-6.714,1.343
0.035,0.052,0.944,0.366,8.789,-1.343
0.027,0.069,1.134,6.653,13.977,-0.732
0.037,0.072,1.120,5.981,2.747,0.549
0.045,0.038,0.970,-2.869,-13.367,2.258
0.058,0.000,0.916,-6.409,-12.329,1.648
0.053,0.024,0.983,-7.690,-9.094,0.610
0.041,0.049,1.057,-3.845,-5.920,-1.160
0.022,0.051,1.085,-1.648,-8.484,-1.343
0.023,0.025,1.003,-2.747,-15.564,-1.892
0.012,0.049,0.806,-4.333,-14.038,-2.441
-0.006,0.071,0.819,-3.601,-0.061,-0.549
0.005,0.073,0.997,-2.197,3.845,1.404
0.037,0.028,1.009,-3.357,0.854,2.747
0.061,-0.020,0.965,-4.028,1.404,-0.305
0.030,0.041,1.001,-3.845,5.310,-4.761
-0.019,0.114,1.129,-2.930,3.662,-2.136
-0.009,0.058,1.144,-1.587,-0.610,1.221
0.017,-0.018,0.994,-0.122,-7.874,-0.061
0.013,0.001,0.899,-0.244,-5.981,-3.479
-0.001,0.031,0.866,-1.038,9.094,-8.057
-0.048,0.137,1.035,0.854,16.296,-8.118
-0.047,0.151,1.139,3.662,12.390,-1.343
0.013,0.002,1.119,2.625,3.052,1.587
0.033,-0.017,1.001,-0.305,-7.935,-1.587
0.002,0.062,0.888,-0.488,-5.188,-4.272
-0.031,0.109,0.923,-0.549,1.953,-4.089
-0.020,0.084,1.009,-0.977,2.014,-0.977
0.023,0.029,1.011,-0.366,0.366,2.197
0.091,-0.018,1.038,-1.770,-0.793,0.854
0.085,0.004,1.040,-4.272,-3.662,-1.526
0.029,0.083,0.949,-6.165,-10.681,-4.517
0.000,0.088,0.910,-4.883,-10.803,-3.784
-0.012,0.067,0.909,-0.122,-3.906,-1.221
-0.004,0.051,0.960,1.526,-0.732,-1.221
0.001,0.058,0.977,-0.916,-0.977,-1.282
0.008,0.073,0.967,-2.930,-3.052,-0.854
0.015,0.063,0.967,-5.249,-3.967,0.732
0.023,-0.019,1.016,-4.700,-2.991,0.244
0.012,-0.004,1.001,-1.648,-0.916,-5.371
-0.015,0.065,0.954,-1.038,0.854,-7.263
-0.024,0.100,0.963,-4.883,2.686,-6.958
-0.021,0.114,1.042,-6.287,1.953,-4.272
-0.013,0.076,1.065,-6.165,0.000,-1.282
-0.016,0.064,1.021,-3.540,-3.967,0.061
-0.016,0.068,1.000,-2.258,-3.723,-0.610
-0.015,0.065,0.998,-3.113,-1.038,-2.197
-0.025,0.077,1.039,-3.601,-0.122,-2.441
-0.026,0.096,1.061,-1.770,-1.343,-0.244
0.016,0.072,1.070,-0.854,-3.845,2.258
0.035,0.028,1.026,-1.404,-7.324,2.014
0.011,0.054,0.974,-0.610,-3.784,-0.793
-0.002,0.063,1.027,2.869,3.723,-2.930
0.006,0.089,1.069,3.967,2.808,-1.892
0.019,0.073,1.056,3.784,-2.502,1.526
0.028,0.051,1.003,2.319,-5.066,1.160
0.021,0.046,0.964,0.061,-6.470,-0.122
0.008,0.030,0.944,-2.014,-2.991,-2.686
-0.017,0.070,0.955,-0.305,0.427,-3.540
-0.016,0.095,0.989,2.808,3.967,-1.831
0.007,0.069,1.034,2.869,2.625,-0.732
0.010,0.046,1.019,1.160,-1.160,-1.831
-0.022,0.058,1.001,0.854,-1.953,-3.052
-0.047,0.090,0.997,1.465,-4.944,-1.587
-0.052,0.104,0.980,0.793,-8.057,1.160
-0.032,0.076,0.949,-3.906,-13.000,4.028
0.004,0.006,0.888,-5.493,-10.925,2.625
0.000,0.010,0.896,-4.578,-5.188,-0.122

-0.564,-1.595,1.366,-32.532,31.433,-5.981
-0.496,-1.940,1.396,-36.987,28.503,-16.235
-0.203,-1.960,1.367,-26.428,32.959,-31.250
-0.087,-1.731,1.340,0.366,40.161,-67.383
-0.050,-0.750,1.164,7.263,34.302,-79.834
-0.095,-0.072,0.930,18.555,10.071,-53.223
0.203,0.729,0.646,18.860,-1.587,-13.611
0.658,0.531,0.638,-16.663,-29.419,39.368
1.500,-0.771,0.313,-32.166,-27.039,-2.014
1.473,-0.209,-0.020,-20.203,13.123,-98.022
1.101,1.168,0.238,64.636,187.134,-228.088
-0.065,2.530,2.821,79.712,212.402,-193.298
-0.562,2.186,3.423,-28.625,-21.545,-72.205
-0.806,1.353,1.550,-72.327,-162.415,-28.625
-0.629,1.035,0.198,-36.316,-222.168,39.551
-0.124,0.410,-1.148,1.892,-155.029,63.904
0.102,0.153,-1.009,37.720,25.513,70.862
0.367,-0.115,0.385,34.912,96.375,59.814
0.452,-0.160,1.200,18.127,131.104,35.278
0.448,-0.147,1.951,5.188,94.604,25.269
0.282,-0.007,1.775,-8.606,40.710,17.456
-0.043,0.283,1.041,-13.306,-40.466,19.897
-0.025,0.225,0.846,-7.751,-50.415,30.884
0.066,0.017,0.772,2.197,-29.541,42.114
0.157,-0.139,0.776,5.676,-9.277,32.104
0.090,-0.017,0.939,3.540,22.522,8.789
-0.011,0.230,1.293,0.671,18.311,9.216
0.039,0.197,1.201,-3.357,-18.555,26.733
0.215,-0.065,0.793,-4.211,-25.391,30.212
0.227,-0.091,0.723,-1.953,-1.953,15.625
0.125,-0.024,0.909,-1.404,15.869,6.958
0.103,0.002,1.091,-5.371,29.480,0.061
0.157,0.047,1.255,-7.935,21.484,1.282
0.170,0.032,1.221,-7.629,10.437,3.479
0.135,0.015,1.189,1.343,-2.380,2.075
0.013,0.057,1.146,2.991,-6.714,-0.427
-0.016,0.077,1.078,-1.831,-16.968,1.221
0.005,0.082,0.896,-3.906,-18.188,4.089
0.018,0.089,0.858,-2.075,-5.554,5.676
0.031,0.061,0.964,-0.427,2.747,5.188
0.056,-0.003,1.038,-2.808,5.981,4.517
0.115,-0.014,1.003,-3.601,2.563,2.808
0.109,0.068,0.959,-2.136,0.732,1.160
0.089,0.087,0.977,1.160,2.747,2.930
0.061,0.017,1.118,-0.122,1.282,2.991
0.078,-0.018,1.141,-6.042,-11.841,0.488
0.098,-0.008,1.003,-8.667,-19.775,-2.014
0.070,0.057,0.863,-7.568,-21.729,-3.845
0.012,0.084,0.782,-3.113,-10.742,-2.258
0.025,0.042,0.918,0.854,9.399,-1.465
0.072,-0.020,1.055,-0.183,8.728,-3.052
0.074,0.016,0.987,-3.662,0.854,-6.470
0.026,0.096,0.910,-4.761,1.587,-5.859
0.012,0.113,0.983,-4.028,4.883,-3.967
0.017,0.101,1.079,-2.502,5.615,1.587
0.044,0.013,1.172,-1.282,1.343,2.991
0.059,-0.011,1.126,2.502,-9.521,-0.732
0.044,0.040,0.896,1.404,-12.146,-3.845
0.002,0.065,0.844,-2.625,-3.784,-5.798
-0.051,0.110,0.948,-2.991,2.319,-4.089
-0.038,0.088,1.019,-0.061,6.104,0.916
0.031,0.058,1.009,0.366,3.601,1.770
0.047,0.042,0.972,-0.427,1.770,1.709
0.031,0.048,1.059,-0.977,3.662,-0.366
0.016,0.071,1.112,-1.282,1.343,-0.610
0.014,0.088,1.096,-3.662,-13.489,2.991
0.046,0.016,0.970,-5.371,-17.578,3.845
0.049,-0.001,0.955,-7.141,-11.475,-1.892
0.014,0.055,1.015,-5.737,-6.592,-5.127
-0.015,0.111,1.017,-0.305,-2.075,-4.028
-0.019,0.099,1.042,2.441,-1.831,0.061
-0.009,0.104,1.016,3.540,-5.432,5.066
-0.016,0.093,0.945,2.747,-4.578,6.287
-0.012,0.056,0.983,1.953,1.953,5.493
0.030,0.011,1.088,2.197,2.319,3.967
0.037,0.016,1.083,2.136,-0.549,2.197
0.028,0.037,1.044,1.892,-8.606,0.183
0.004,0.074,0.943,1.587,-10.559,-0.061
0.000,0.071,0.919,-0.244,-6.531,-0.183
0.018,0.015,0.991,-0.732,-3.174,-0.549
0.026,0.016,1.009,-1.953,-3.967,-2.686
-0.010,0.099,0.890,-2.502,-5.005,-3.174
-0.041,0.133,0.871,1.648,4.028,0.244
-0.042,0.096,1.041,3.784,8.240,2.991
-0.005,0.043,1.109,3.906,7.080,5.249
0.034,0.002,1.091,0.610,-6.165,5.432
0.053,0.018,0.918,-1.587,-9.644,3.235
0.041,0.023,0.897,-3.845,-2.380,-1.587
0.009,0.045,1.006,-3.723,2.075,-3.723
-0.008,0.080,1.046,-0.916,3.174,-3.479
-0.022,0.107,1.071,1.343,1.404,-0.977
-0.018,0.096,1.052,2.869,-3.052,2.686
-0.010,0.059,0.992,2.075,-3.174,2.441
-0.008,0.059,1.009,1.343,-0.366,0.916
0.018,0.039,1.064,0.916,-2.441,1.526
0.027,0.032,1.008,0.305,-6.836,2.014
0.024,0.034,0.930,0.366,-7.202,0.610
0.005,0.056,0.969,1.099,-1.465,-0.610
0.008,0.051,1.067,0.977,1.953,-1.282
0.006,0.048,1.102,-0.061,-3.662,-1.770
-0.005,0.054,1.017,-1.404,-13.489,-2.014
-0.032,0.077,0.853,-1.160,-12.146,-1.831
-0.033,0.082,0.847,-0.244,0.732,-0.183
0.001,0.026,0.968,0.183,7.202,-0.122
0.008,0.037,1.028,0.854,10.864,-3.052
0.010,0.067,1.101,1.343,8.301,-2.808
0.010,0.064,1.098,2.197,-2.686,-0.427
0.001,0.057,1.004,1.099,-7.751,0.427
-0.004,0.046,0.988,-1.038,-11.047,1.099
-0.008,0.039,0.962,-5.371,-14.832,0.427
-0.004,0.039,0.885,-6.104,-13.855,-0.671
-0.003,0.052,0.856,-3.296,-3.296,-2.197
-0.008,0.053,0.933,0.366,4.822,-2.136
-0.007,0.039,1.006,3.906,10.315,-1.892
-0.014,0.048,1.007,2.136,6.409,-2.197
-0.019,0.069,0.950,-3.601,0.732,-2.319
-0.019,0.064,0.981,-3.967,3.235,-2.380
-0.018,0.064,1.056,-2.136,4.517,-2.441
-0.018,0.064,1.071,-1.709,0.305,-1.892

-0.714,1.259,1.277,5.249,36.133,-57.861
-0.641,1.140,1.296,21.606,0.549,22.339
-0.107,0.469,0.833,16.663,-15.747,53.833
0.161,0.174,0.751,5.249,-4.578,71.167
0.436,-0.240,1.072,4.700,2.747,62.317
0.383,-0.264,1.096,12.146,-8.545,22.705
0.085,0.034,0.798,15.259,-9.644,5.493
-0.029,0.160,0.777,15.076,-2.563,-3.662
-0.119,0.299,0.834,4.272,7.690,-0.488
-0.117,0.379,0.838,-4.822,7.568,8.240
-0.059,0.394,0.905,-11.414,14.648,33.813
0.174,-0.069,1.246,-8.240,17.212,41.870
0.277,-0.268,1.286,5.249,4.456,24.353
0.298,-0.173,0.951,9.888,-3.296,9.338
0.233,-0.067,0.773,6.836,1.770,-6.592
0.102,0.096,0.848,5.249,12.573,-8.789
0.077,0.075,1.010,0.427,21.423,-4.395
0.059,-0.006,1.180,-2.136,15.625,-3.967
0.039,0.041,1.148,-3.052,6.592,-5.676
0.020,0.090,1.107,-2.441,-9.094,-4.883
0.021,0.106,1.112,-1.770,-14.465,-1.953
0.032,0.065,1.081,1.282,-18.860,1.404
0.010,-0.034,0.959,4.944,-14.038,-1.160
-0.018,0.024,0.944,8.667,-1.221,-8.362
-0.050,0.121,0.933,4.883,-0.061,-7.874
-0.070,0.127,0.923,-2.380,-3.967,-2.686
-0.087,0.121,0.940,-5.493,-7.446,1.282
-0.064,0.075,0.938,-12.512,-14.648,8.606
0.018,-0.014,0.869,-12.024,-12.939,8.667
0.036,-0.004,0.882,-6.653,-5.249,5.798
0.034,0.039,1.080,7.202,12.573,-1.221
0.022,0.028,1.136,8.545,12.634,-2.563
0.006,0.019,1.115,0.732,-2.014,-2.686
-0.036,0.051,0.945,-3.296,-7.446,-2.136
-0.059,0.087,0.885,-5.676,-0.244,-1.282
-0.057,0.121,1.054,-2.625,8.728,-0.305
-0.026,0.084,1.201,5.859,10.742,2.319
0.018,0.032,1.217,7.751,1.526,2.991
0.030,0.024,1.105,6.653,-19.592,3.723
0.026,0.002,0.823,3.052,-25.269,3.601
0.008,-0.002,0.712,-1.465,-23.560,2.502
-0.018,0.029,0.881,-3.601,3.296,-2.075
-0.026,0.077,1.058,-0.793,14.587,-4.211
-0.038,0.110,1.154,2.319,8.728,-2.563
-0.043,0.098,1.061,1.953,-0.671,0.305
-0.025,0.074,0.987,-0.183,-9.827,4.089
0.016,0.022,0.881,-1.343,-9.216,4.089
0.022,0.010,0.867,-2.319,0.183,0.671
0.024,0.012,0.959,-2.686,5.493,-1.526
0.016,0.025,1.020,-1.709,10.803,-5.371
-0.018,0.082,1.121,0.183,10.376,-6.165
-0.029,0.099,1.130,1.465,-0.793,-2.991
-0.018,0.083,0.960,-0.793,-8.179,-0.061
-0.002,0.056,0.872,-3.540,-11.108,2.380
0.026,0.016,0.916,-3.235,-1.038,2.991
0.026,0.017,0.998,-1.587,4.150,1.404
0.017,0.026,1.036,-2.625,1.221,-1.221
0.003,0.068,0.992,-2.991,-2.014,-1.465
0.002,0.065,0.987,-0.305,-2.869,0.183
-0.004,0.024,1.006,0.549,-2.625,0.061
-0.015,0.036,0.993,-0.183,-2.930,-2.686
-0.034,0.050,0.940,-1.770,-2.502,-3.235
-0.042,0.068,0.925,-2.991,2.869,-2.869
-0.043,0.118,1.009,-0.793,7.568,-1.343
-0.021,0.088,1.104,2.197,9.277,2.136
0.019,0.006,1.145,1.770,3.845,1.465
0.015,0.012,1.075,1.282,-2.808,-0.793
0.002,0.039,1.004,-0.427,-10.498,-3.479
-0.031,0.088,0.911,-1.709,-10.254,-2.625
-0.037,0.087,0.913,-0.549,-2.808,0.610
-0.021,0.045,0.971,-0.427,0.427,1.343
-0.008,0.026,0.993,-2.747,1.770,0.244
0.012,0.030,0.992,-3.723,1.587,-1.038
0.004,0.061,1.001,-1.953,4.395,-2.563
-0.026,0.084,1.081,0.793,5.615,-1.953
-0.035,0.085,1.097,2.441,1.526,-0.671
-0.020,0.055,1.044,2.014,-1.404,-0.305
-0.005,0.041,0.997,1.892,-3.357,-0.488
-0.003,0.044,0.946,0.671,-3.357,-1.770
-0.044,0.100,0.920,-0.061,-0.671,-1.831
-0.056,0.113,0.970,-1.770,4.333,1.221
-0.005,0.044,1.072,-1.892,3.479,3.113
0.023,0.004,1.061,-1.038,-2.930,1.892
0.008,0.036,0.965,0.061,-4.639,-0.427
-0.017,0.070,0.938,1.465,-2.441,-1.831
-0.035,0.070,0.970,0.427,-0.977,-0.671
-0.018,0.044,0.986,-2.075,-0.793,0.916
0.008,0.021,0.959,-2.075,0.122,-0.061
0.004,0.031,0.963,-1.404,2.197,-1.587
-0.035,0.096,1.019,-0.427,4.456,-3.113
-0.046,0.115,1.045,0.061,3.235,-2.075
-0.041,0.103,1.042,-0.793,-2.869,1.404
-0.011,0.055,0.964,-1.526,-4.883,2.197
-0.000,0.032,0.953,-2.380,-3.174,1.770
0.007,0.041,0.977,-2.747,-1.892,0.305
-0.000,0.059,0.989,-0.854,0.671,-2.014
-0.013,0.056,1.007,-0.244,0.610,-2.258
-0.018,0.051,0.964,-3.357,-1.526,-2.686
-0.036,0.089,0.901,-4.822,0.427,-2.441
-0.048,0.111,0.941,-4.211,9.277,-0.366
-0.032,0.097,1.136,-2.136,11.597,1.160
-0.005,0.059,1.194,2.136,3.418,2.441
0.015,0.037,1.072,3.357,-3.540,1.404
0.003,0.056,0.974,3.357,-8.118,0.183
-0.010,0.079,0.910,-0.366,-6.409,-0.183
-0.003,0.051,0.964,-1.160,-1.892,0.488
0.008,0.030,1.026,-0.305,2.075,-0.610
0.007,0.059,1.031,0.488,0.061,-1.221
0.005,0.056,0.987,1.648,-3.540,-0.671
0.001,0.062,0.942,1.770,-2.136,-1.038
-0.004,0.061,0.974,1.099,1.953,-2.014
-0.027,0.087,1.021,0.366,1.465,-2.136
-0.032,0.108,1.025,-0.305,-0.549,-1.343
0.004,0.077,1.001,-1.648,-6.287,2.258
0.026,0.031,0.977,-1.770,-7.935,3.052
0.026,0.015,0.953,-0.732,-4.944,-0.671
-0.022,0.063,0.969,-0.122,-1.648,-2.625
-0.041,0.085,0.986,0.244,0.610,-2.686
-0.031,0.107,0.984,0.366,0.305,-1.099

-0.495,-0.989,1.281,-2.991,21.606,0.549
-0.460,-1.112,1.274,9.216,38.208,-7.751
-0.286,-1.232,1.344,16.052,48.401,-16.602
-0.159,-1.198,1.413,19.897,51.270,-44.067
0.003,-0.684,1.308,13.916,42.908,-57.983
0.010,-0.223,1.238,-3.357,22.278,-50.476
0.104,0.376,1.276,-6.653,6.104,-20.264
0.271,0.292,1.277,-21.179,-63.477,55.908
0.826,-0.238,0.542,-30.762,-106.934,75.012
1.109,-0.518,-0.193,-33.569,-129.395,63.232
1.196,-0.391,-0.941,-18.127,-26.184,-58.411
0.861,0.932,-0.499,-8.301,95.581,-120.911
0.587,1.382,1.098,0.183,241.638,-162.964
-0.291,1.404,3.677,-2.075,181.641,-156.433
-0.792,1.549,3.236,-1.770,-69.397,-119.507
-1.088,1.856,0.548,10.071,-143.982,-69.885
-0.775,1.385,-0.399,12.024,-127.136,53.345
0.106,0.198,-0.835,-2.197,-70.007,82.886
0.369,-0.190,-0.403,-9.705,68.237,67.993
0.540,-0.298,1.120,0.916,107.239,43.274
0.473,-0.147,1.580,7.751,77.698,3.967
0.138,0.259,1.545,5.981,36.987,-3.418
-0.011,0.353,1.313,6.226,2.258,-1.160
-0.071,0.358,1.150,0.549,-32.166,19.043
0.009,0.123,0.903,-6.165,-37.659,28.564
0.056,0.037,0.790,-8.606,-19.836,26.550
0.092,-0.036,0.874,-3.357,1.099,18.250
0.095,0.027,1.044,9.827,30.457,4.028
0.122,0.112,1.238,11.169,28.198,4.822
0.156,0.051,1.176,6.165,5.798,10.376
0.185,0.034,0.981,2.136,-2.258,8.789
0.164,0.033,0.929,-2.808,-5.432,6.042
0.128,-0.000,0.931,-10.498,3.174,0.305
0.139,0.031,1.100,-6.836,10.498,-3.357
0.171,0.015,1.190,1.404,7.751,-7.690
0.083,0.087,1.137,2.380,-2.747,-9.460
-0.009,0.165,1.035,1.709,-18.616,-6.042
-0.072,0.128,0.976,0.793,-18.372,-2.075
-0.033,0.068,0.977,0.549,-12.939,1.465
0.015,-0.006,0.850,1.038,-7.568,-0.183
-0.002,0.018,0.884,4.150,9.644,-7.812
-0.054,0.161,1.051,4.272,12.329,-8.667
-0.049,0.164,1.089,2.808,9.094,-5.737
-0.002,0.026,1.097,-1.282,-6.470,2.258
0.007,0.015,1.025,-3.845,-15.442,2.625
0.004,0.039,0.897,-4.211,-17.944,-1.038
-0.010,0.095,0.805,-0.854,-7.141,-3.052
-0.010,0.102,0.940,5.310,12.024,-2.930
-0.009,0.116,1.184,6.287,8.362,0.427
0.006,0.071,1.145,3.845,-13.184,7.202
0.010,0.019,0.887,0.488,-17.517,5.859
-0.008,0.024,0.834,-5.127,-5.615,-0.549
-0.039,0.090,0.944,-4.333,3.601,-2.563
-0.042,0.128,1.049,-2.625,9.033,-2.686
-0.013,0.092,1.135,-0.122,3.723,2.075
0.002,0.076,1.112,1.221,-2.380,3.662
0.001,0.082,1.082,0.549,-13.062,3.906
-0.019,0.131,0.979,-2.747,-18.372,4.517
-0.018,0.109,0.890,-8.484,-19.958,7.751
0.009,0.018,0.859,-6.470,-12.573,7.751
0.023,0.007,0.924,-0.122,1.099,3.723
0.023,0.040,0.997,1.587,3.052,0.854
0.001,0.088,0.982,2.014,4.028,-2.991
-0.036,0.135,1.020,0.488,4.211,-1.648
-0.028,0.124,1.051,-1.526,2.686,1.282
-0.002,0.081,1.061,-1.953,-1.404,5.737
0.050,0.025,1.003,0.366,-2.014,4.211
0.053,0.052,0.947,-0.122,-0.427,-1.282
0.030,0.087,0.958,-1.709,2.136,-1.892
0.029,0.081,1.031,-1.282,4.761,-0.732
0.031,0.055,1.099,-0.854,1.587,-0.916
0.023,0.049,1.052,-2.319,-9.094,-2.258
-0.005,0.080,0.903,-4.578,-12.573,-3.174
-0.015,0.120,0.845,-6.226,-7.690,-2.258
-0.009,0.086,0.933,-2.869,0.366,-0.671
0.006,0.063,1.013,1.648,8.240,-0.671
0.016,0.056,1.013,1.526,7.935,-1.953
0.011,0.075,1.011,1.038,8.057,-3.540
-0.008,0.111,1.035,-1.160,7.324,-5.127
-0.057,0.154,1.157,-1.526,4.578,-3.235
-0.045,0.129,1.177,0.366,-9.399,2.991
0.009,0.043,0.944,1.221,-14.832,3.967
0.012,0.030,0.833,2.441,-5.310,-0.916
-0.034,0.079,0.894,1.953,4.578,-3.601
-0.051,0.102,1.006,1.160,13.184,-3.540
-0.027,0.108,1.118,1.770,9.216,-1.282
-0.010,0.086,1.073,1.465,-3.540,2.014
-0.026,0.079,0.920,1.404,-5.737,1.831
-0.048,0.099,0.897,1.709,-4.211,1.160
-0.053,0.093,0.921,1.160,0.305,1.892
-0.028,0.065,0.970,-0.061,-0.061,2.197
-0.021,0.079,0.964,-2.258,0.061,2.380
0.001,0.078,1.003,-1.221,2.014,2.441
-0.000,0.061,1.023,-0.122,2.502,1.404
-0.027,0.089,0.991,-0.122,1.343,0.916
-0.033,0.102,0.973,-1.526,1.953,2.014
-0.012,0.067,1.004,-2.136,3.479,2.319
-0.006,0.069,1.011,-1.099,5.737,0.549
-0.018,0.128,0.999,0.061,6.226,0.488
-0.014,0.123,1.019,1.282,5.920,2.075
0.003,0.094,1.039,1.404,0.854,5.615
0.037,0.055,1.007,0.549,-2.258,5.920
0.043,0.037,0.970,-1.038,-3.967,3.662
0.027,0.053,0.910,-1.892,-1.953,1.526
0.017,0.068,0.930,-2.808,4.150,-0.305
0.021,0.089,1.016,-3.052,4.822,0.000
0.031,0.083,1.038,-2.441,1.831,1.709
0.040,0.052,1.020,-1.160,0.854,1.404
0.039,0.048,1.020,0.122,1.160,0.000
0.035,0.050,1.024,0.671,0.610,-3.601
0.012,0.105,0.977,-1.221,-1.282,-4.456
0.002,0.119,0.954,-4.089,-2.319,-2.075
-0.000,0.099,0.986,-3.967,-0.732,-0.427
0.006,0.075,1.022,-2.563,1.953,0.366
0.026,0.070,1.063,-1.099,1.465,-0.854
0.027,0.084,1.058,0.610,-3.418,-2.197
0.008,0.087,0.993,0.854,-5.798,-1.770
-0.008,0.088,0.940,-0.122,-5.310,-1.770
-0.020,0.097,0.891,-0.732,-1.465,-2.136

-0.449,-1.107,1.307,-11.475,17.822,-10.315
-0.453,-1.308,1.287,-25.269,12.329,-20.264
-0.316,-1.514,1.113,-29.236,13.977,-32.410
-0.252,-1.332,1.011,-5.554,41.382,-69.214
-0.180,-0.499,0.999,18.494,64.941,-78.552
-0.088,-0.124,1.184,40.955,85.693,-50.598
0.141,0.215,1.459,25.635,64.819,-20.142
0.289,0.182,1.457,-28.442,-22.888,26.489
0.591,0.115,0.845,-43.396,-69.885,28.564
0.633,0.371,0.169,-42.053,-96.924,17.883
0.567,1.092,-0.602,-4.761,-35.583,4.639
0.589,0.832,-0.172,8.911,36.743,6.958
0.586,0.288,0.641,-9.644,131.042,-60.059
0.349,0.541,2.107,-13.489,122.070,-123.962
0.070,1.321,2.123,10.132,22.644,-157.837
-0.433,1.557,1.312,11.475,-29.541,-115.845
-0.558,1.274,0.895,-7.385,-89.783,-29.236
-0.543,0.925,0.187,-13.855,-95.825,2.991
-0.431,0.725,-0.116,-13.306,-55.420,53.711
-0.051,0.241,0.071,-3.845,-10.376,65.491
0.137,0.058,0.543,11.841,61.462,58.838
0.353,-0.061,1.403,9.094,65.796,48.889
0.366,-0.062,1.580,1.526,50.354,38.940
0.271,0.096,1.408,-7.507,-0.549,22.156
0.209,0.138,1.232,-5.615,-20.203,20.813
0.177,0.101,1.032,-3.479,-33.142,25.391
0.126,0.029,0.743,-3.357,-21.484,22.644
0.127,0.020,0.835,-0.244,19.226,10.620
0.188,-0.013,1.205,2.502,29.907,3.296
0.198,0.015,1.281,3.418,17.639,-5.676
0.124,0.117,1.077,2.258,7.751,-6.531
0.101,0.162,1.034,5.127,5.127,-1.526
0.105,0.109,1.084,5.005,3.418,1.648
0.097,0.083,1.072,2.625,-0.244,2.991
0.078,0.060,1.050,0.122,-1.648,0.122
0.034,0.020,1.060,1.404,1.526,-2.136
0.036,0.034,1.092,11.047,3.845,-5.676
0.043,0.119,1.070,12.939,0.000,-6.287
0.011,0.106,1.017,7.263,-9.460,-7.812
-0.090,0.172,0.911,2.563,-11.108,-8.118
-0.100,0.158,0.875,-4.578,-7.141,0.244
-0.017,0.070,0.836,-4.333,-0.549,4.272
0.027,0.069,0.879,0.305,17.639,3.784
0.041,0.066,1.102,0.000,20.508,1.526
0.021,0.046,1.150,-2.197,15.808,-0.488
0.014,0.062,1.129,-4.333,0.793,-2.136
0.049,0.047,1.063,-2.625,-2.380,-0.977
0.049,0.098,1.054,6.348,-4.028,0.366
0.010,0.150,1.046,8.850,-6.470,2.869
0.005,0.085,1.008,4.272,-13.611,5.737
0.014,0.007,0.900,0.671,-14.648,3.113
0.005,0.051,0.881,-5.432,-12.024,-2.014
-0.030,0.106,0.927,-6.958,-10.498,-1.038
-0.023,0.078,0.951,-6.348,-8.545,0.854
0.010,0.027,0.953,-1.953,-0.732,0.122
0.069,-0.020,0.947,-0.854,5.432,-3.906
0.058,0.049,1.002,0.977,13.733,-10.803
-0.020,0.214,1.141,2.502,10.498,-7.690
-0.036,0.211,1.151,5.981,-7.324,5.493
-0.004,0.087,0.974,5.798,-14.954,9.888
0.021,-0.009,0.874,1.892,-13.000,8.240
0.022,-0.017,0.787,1.221,-4.761,2.991
0.001,0.062,0.839,-1.038,10.193,-3.113
0.003,0.106,0.974,-2.930,12.817,-1.831
0.036,0.051,1.038,-4.028,14.038,-0.366
0.065,0.024,1.097,-1.160,15.076,-4.150
0.043,0.092,1.184,1.770,12.451,-6.653
0.006,0.146,1.173,2.991,-3.906,-4.761
-0.025,0.150,1.024,1.587,-12.085,-0.427
0.003,0.093,0.967,-0.427,-14.648,6.042
0.065,0.006,0.921,-0.549,-10.620,5.066
0.059,-0.003,0.901,-1.160,1.648,-3.052
0.012,0.093,1.000,-1.038,7.202,-6.287
0.002,0.140,1.087,1.953,5.676,-2.502
0.030,0.066,1.112,3.235,-0.366,1.648
0.044,0.008,1.053,3.479,-5.615,3.174
0.034,0.014,0.973,3.784,-6.653,-2.930
-0.044,0.114,0.887,2.747,-3.723,-5.249
-0.069,0.160,0.893,-0.061,1.465,-1.709
-0.007,0.112,0.990,-0.122,2.991,2.930
0.043,0.032,1.057,1.892,2.625,5.737
0.064,0.020,1.061,2.625,-0.549,2.808
0.035,0.044,0.990,0.610,-6.042,-2.197
-0.019,0.101,0.943,0.244,-5.432,-2.808
-0.025,0.141,0.958,-0.244,-6.653,2.258
0.005,0.109,0.936,-2.136,-8.667,6.592
0.034,0.054,0.918,-3.296,-8.728,9.216
0.061,0.001,0.921,-0.732,-0.549,6.836
0.067,-0.002,0.994,0.305,3.601,2.563
0.042,0.046,1.016,0.488,5.676,-2.930
0.033,0.059,1.072,1.221,4.578,-2.869
0.044,0.034,1.069,0.549,-3.296,-3.418
0.005,0.054,0.936,-0.793,-5.554,-4.761
-0.020,0.083,0.921,-0.793,2.197,-5.249
-0.011,0.109,1.037,0.427,6.104,-4.761
-0.007,0.104,1.047,0.549,2.991,-2.991
-0.025,0.068,0.984,0.183,0.549,-1.892
-0.020,0.058,0.965,0.671,0.244,-1.099
0.001,0.061,0.963,1.343,4.211,-1.770
0.036,0.078,1.017,0.610,6.897,-2.930
0.034,0.071,1.088,-1.099,6.958,-3.479
0.004,0.117,1.144,-0.366,2.930,-2.991
-0.015,0.130,1.111,3.784,-7.507,0.916
-0.009,0.093,0.931,4.028,-11.475,3.113
0.012,0.044,0.865,0.061,-9.277,4.211
0.041,0.016,0.890,-1.831,-4.578,2.747
0.045,0.027,0.927,-1.038,3.906,-0.610
0.035,0.046,1.005,0.854,6.226,-2.014
0.018,0.075,1.013,2.686,5.920,-2.686
-0.005,0.111,0.987,1.831,-0.244,-0.366
-0.020,0.107,0.950,-0.488,-2.014,1.831
-0.004,0.061,0.985,-3.845,0.244,3.052
0.051,0.007,1.095,-2.808,1.099,1.709
0.062,0.020,1.094,1.709,-3.418,-1.648
0.017,0.083,0.955,2.991,-6.348,-2.319
-0.008,0.097,0.877,0.977,-4.333,-1.343
-0.013,0.074,0.895,-1.282,0.732,-0.854
0.009,0.057,0.979,-3.296,6.470,-0.549
0.046,0.044,1.055,-2.625,4.578,-1.038

0.099,1.161,1.577,16.785,63.904,-156.738
-0.154,1.259,1.667,31.433,17.456,-119.629
-0.665,1.349,0.970,19.165,-17.395,-93.201
-0.821,1.353,0.668,11.658,-42.114,-24.597
-0.603,0.905,0.562,9.583,-44.434,15.198
-0.269,0.540,0.468,1.404,-47.302,69.336
0.340,0.024,0.260,2.502,-34.546,73.792
0.484,-0.051,0.386,4.578,-10.498,65.430
0.520,-0.103,0.795,0.916,34.363,37.048
0.410,-0.225,1.660,-0.793,29.175,24.170
0.297,-0.156,1.644,8.118,-25.513,1.648
0.027,0.212,0.919,10.925,-45.837,-2.625
-0.035,0.281,0.648,2.380,-35.767,7.080
0.054,0.090,0.691,-4.700,-16.907,12.146
0.115,-0.036,0.834,-10.681,13.916,7.141
0.129,-0.045,1.054,-6.348,21.179,-0.183
0.116,0.083,1.088,1.648,15.503,-4.639
0.097,0.150,1.028,-0.549,7.690,0.549
0.082,0.088,1.054,-4.089,3.540,5.676
0.069,-0.014,1.152,-5.432,5.676,4.944
0.010,-0.135,1.307,-3.296,3.052,-2.075
-0.046,0.002,1.203,-1.282,-16.541,-14.648
-0.140,0.254,0.906,-3.662,-21.606,-12.695
-0.142,0.253,0.905,-3.296,-11.169,1.343
-0.046,0.001,1.106,-1.099,-4.639,6.531
-0.000,-0.086,1.103,4.395,-1.831,0.549
-0.003,0.080,0.866,5.920,-0.854,-5.615
-0.036,0.158,0.782,2.869,11.658,-6.165
-0.054,0.109,0.983,1.831,20.142,-2.808
-0.007,0.062,1.141,2.075,22.644,0.244
0.051,0.028,1.173,0.061,5.005,2.686
0.093,-0.011,0.899,-2.380,-1.465,1.160
0.073,0.009,0.855,-0.427,11.658,-4.517
0.017,0.105,1.084,1.160,18.127,-5.005
0.002,0.112,1.177,1.099,7.507,1.343
0.009,0.037,1.096,2.197,-2.136,4.761
0.022,0.022,1.006,5.188,-7.568,5.310
-0.002,0.060,0.900,6.470,-6.775,0.671
-0.029,0.064,0.915,3.174,-3.540,-0.916
-0.046,0.082,0.976,0.732,1.709,-1.404
-0.014,0.074,1.081,1.709,-1.038,0.977
0.017,0.052,1.025,-1.343,-14.832,5.310
0.019,-0.043,0.812,-4.761,-15.686,3.784
-0.013,-0.033,0.808,-3.479,2.014,-6.042
-0.063,0.140,0.996,-1.404,9.460,-8.606
-0.068,0.191,1.075,1.709,8.362,-1.221
-0.012,0.102,1.163,2.991,2.014,4.272
0.015,0.060,1.100,2.441,-6.775,7.385
0.028,0.013,0.985,-2.686,-14.587,6.287
0.035,-0.020,0.879,-3.052,-8.911,2.930
0.036,0.031,0.925,0.305,4.639,-2.136
0.030,0.081,1.060,1.465,5.127,-1.831
0.027,0.074,1.067,1.831,-3.052,-0.183
0.049,0.005,0.997,0.671,-5.493,-0.122
0.071,-0.027,0.942,-3.357,-3.357,-3.967
0.063,0.020,0.855,-4.822,1.160,-7.141
0.026,0.087,0.901,-3.113,11.780,-8.545
-0.037,0.138,1.089,-1.038,12.329,-5.127
-0.024,0.099,1.126,0.732,8.606,-0.671
0.012,0.045,1.102,2.136,-2.441,2.563
0.060,0.009,0.974,1.648,-5.676,0.427
0.042,0.039,0.941,-0.916,-6.104,-3.845
-0.029,0.095,0.986,-1.587,-4.883,-3.479
-0.037,0.079,1.045,1.587,-3.845,0.305
0.013,0.007,1.038,3.296,-5.676,0.610
0.018,0.009,0.974,1.404,-7.019,-3.784
-0.040,0.095,0.926,0.122,-4.578,-5.859
-0.068,0.111,0.964,-1.648,-1.099,-3.967
-0.062,0.092,1.023,-1.404,-2.258,-1.160
-0.028,0.056,1.023,-1.282,-4.822,1.770
0.004,0.018,0.991,-2.380,-8.850,2.747
0.004,0.038,0.911,-2.075,-6.287,0.366
-0.020,0.050,0.963,-1.282,3.235,-2.991
-0.043,0.068,1.088,-0.244,3.418,-2.869
-0.035,0.080,1.074,2.380,-4.822,0.061
-0.021,0.057,0.950,1.648,-7.812,1.343
-0.036,0.042,0.917,-2.930,-4.700,-0.122
-0.070,0.079,0.956,-4.700,-1.404,-1.221
-0.064,0.088,0.980,-3.723,0.916,0.366
-0.016,0.101,1.004,-1.648,0.366,2.502
0.006,0.068,1.010,-0.549,-0.549,4.883
0.013,-0.004,1.005,-0.854,-1.038,5.127
0.008,-0.003,1.007,-0.549,0.427,2.380
0.002,0.018,1.006,-0.671,2.319,-3.357
-0.021,0.087,0.982,-2.136,1.709,-4.211
-0.029,0.115,0.985,-2.991,0.488,-0.854
-0.039,0.057,1.009,-2.563,0.122,1.221
-0.038,0.026,1.001,-0.610,-0.183,0.366
-0.031,0.068,0.931,-0.366,0.793,-0.916
-0.025,0.071,0.940,-2.869,5.432,-1.221
-0.021,0.090,1.047,-3.418,6.958,-1.221
-0.016,0.096,1.107,0.000,2.441,1.221
0.016,0.042,1.068,1.343,-4.089,2.319
0.027,0.025,0.977,0.488,-10.376,2.075
0.023,0.030,0.901,-5.188,-12.817,-1.465
-0.023,0.086,0.864,-6.592,-7.935,-2.869
-0.043,0.109,0.932,-5.188,4.639,-1.465
-0.023,0.086,1.069,-3.174,6.531,0.977
0.003,0.051,1.090,0.000,2.319,2.258
0.010,0.045,1.046,0.488,-0.916,0.671
-0.010,0.071,1.011,-0.610,-4.517,-1.587
-0.030,0.100,0.981,-2.014,-4.761,-0.854
-0.019,0.075,0.996,-2.747,-3.174,1.587
0.007,0.050,1.014,-2.075,-3.052,1.343
-0.001,0.059,0.991,-1.343,-4.028,-0.427
-0.045,0.091,0.939,-1.465,-3.784,-1.160
-0.062,0.104,0.931,-1.953,-2.808,-1.465
-0.047,0.131,0.955,-1.953,0.671,-0.061
-0.020,0.115,1.005,-1.587,2.502,1.770
0.004,0.075,1.062,-2.075,1.526,3.845
0.009,0.062,1.099,-2.441,-1.831,3.113
0.001,0.070,1.061,-1.465,-7.568,2.014
0.010,0.061,0.999,-1.099,-7.080,1.465
0.014,0.036,1.015,0.549,-2.625,-1.526
-0.031,0.071,1.023,0.671,-2.686,-3.235
-0.053,0.103,0.992,0.122,-4.944,-2.197
-0.036,0.113,0.926,-0.488,-4.395,-0.122
-0.017,0.082,0.938,-0.854,-2.197,1.587
-0.006,0.036,1.021,0.244,2.808,0.916

-0.526,-1.088,1.185,-16.602,27.100,-5.005
-0.416,-1.148,1.264,-10.254,32.166,-12.939
-0.043,-1.222,1.461,-6.042,26.794,-18.555
0.117,-1.216,1.477,-5.310,-6.348,-41.321
0.118,-0.443,0.899,-5.127,-22.888,-57.007
-0.017,0.136,0.513,4.456,-7.812,-47.607
0.018,0.853,0.340,8.118,18.738,-14.038
0.345,0.893,0.548,-15.808,55.054,71.045
1.078,-0.004,0.846,-43.945,57.068,89.233
1.165,-0.626,0.851,-63.110,63.782,62.683
0.740,-0.038,1.587,-10.132,119.690,-121.704
0.287,1.217,2.104,39.734,131.042,-205.078
-0.227,2.020,2.336,48.035,31.372,-183.228
-0.959,1.665,1.502,16.174,-48.218,-126.648
-1.078,1.501,0.746,8.118,-127.563,-40.039
-0.742,1.192,-0.341,24.353,-116.699,3.113
-0.363,0.734,-0.431,20.569,-46.204,72.083
0.346,-0.088,0.017,7.507,-4.883,79.346
0.516,-0.247,0.500,-0.671,61.829,47.485
0.465,-0.100,1.523,1.160,69.519,24.902
0.305,0.066,1.770,4.517,20.508,2.502
0.068,0.231,1.373,4.150,-19.348,4.211
0.037,0.230,0.858,-0.122,-50.537,10.071
0.012,0.140,0.416,-12.634,-35.522,18.677
0.018,-0.116,0.504,-9.460,4.700,16.602
0.093,-0.156,0.864,7.385,56.335,0.061
0.154,0.073,1.099,5.676,51.575,-9.277
0.084,0.237,1.020,-5.249,37.964,-12.878
0.001,0.334,1.291,-4.089,36.987,-3.967
0.064,0.215,1.435,-1.526,2.380,23.376
0.257,-0.003,1.046,-5.371,-22.766,29.419
0.268,-0.079,0.768,-8.118,-32.776,26.611
0.119,-0.032,0.960,1.038,-1.953,3.601
0.045,0.049,1.195,7.263,10.803,-4.883
0.024,0.064,1.290,8.972,-1.160,-5.066
0.047,-0.002,1.030,5.005,-12.695,-5.371
0.027,0.035,0.886,-11.963,-18.677,-10.864
-0.082,0.179,0.823,-18.738,-11.963,-11.841
-0.115,0.236,0.896,-9.888,14.038,-3.662
-0.038,0.096,1.257,-0.244,23.560,2.380
0.024,0.036,1.336,8.118,10.742,3.235
0.020,0.082,1.112,7.568,-2.014,0.122
-0.017,0.137,0.997,5.310,-10.620,-1.587
-0.048,0.103,0.922,-0.671,-14.893,3.235
-0.017,0.054,0.910,-0.977,-13.672,5.920
0.022,-0.001,0.881,-1.404,-6.348,2.869
0.046,0.017,0.880,-1.099,2.441,-2.747
0.042,0.043,1.016,3.418,15.320,-9.888
0.012,0.140,1.196,4.761,8.545,-9.705
-0.010,0.186,1.147,3.906,-17.822,-0.427
-0.011,0.078,0.997,0.610,-27.222,4.639
-0.013,0.031,0.887,-7.446,-27.649,3.418
-0.040,0.062,0.745,-7.690,-17.639,0.610
-0.050,0.102,0.792,-4.761,2.441,0.122
-0.031,0.092,0.942,-3.418,7.629,1.953
0.002,0.067,1.026,3.784,15.564,0.000
0.045,0.013,1.156,6.653,16.846,-3.296
0.037,0.018,1.167,7.629,14.221,-6.714
0.014,0.074,1.107,3.723,-1.953,-8.423
-0.048,0.182,0.893,-1.038,-8.484,-5.005
-0.055,0.168,0.867,-6.836,-5.371,2.991
0.005,0.067,0.984,-7.690,-1.831,4.395
0.043,0.034,1.000,-5.493,0.183,1.282
0.064,0.033,0.909,-2.075,3.235,-1.282
0.048,0.079,0.910,4.089,15.625,-3.967
0.010,0.127,1.032,5.615,20.203,-3.052
0.006,0.106,1.130,5.188,20.752,-1.648
0.020,0.079,1.196,-0.183,5.127,0.305
0.041,0.055,1.048,-2.563,-6.592,0.183
0.025,0.080,0.907,-4.150,-15.015,-1.526
-0.001,0.095,0.812,-4.700,-9.460,-1.587
0.006,0.048,0.901,-2.380,6.531,-3.052
0.006,0.048,1.057,0.427,9.583,-5.371
-0.011,0.097,1.053,3.479,5.737,-6.226
-0.026,0.159,1.041,3.113,1.892,-3.967
-0.024,0.146,1.035,-2.014,-7.996,1.343
-0.033,0.067,0.983,-4.639,-11.169,2.563
-0.039,0.057,0.948,-5.493,-11.475,2.319
-0.034,0.107,0.915,-2.136,-3.662,0.366
-0.022,0.110,0.962,0.183,2.136,0.305
-0.015,0.104,1.018,1.770,6.348,0.793
-0.002,0.097,1.079,1.648,4.456,1.648
0.020,0.061,1.080,-0.244,-2.747,3.723
0.056,0.010,0.982,-1.038,-5.310,2.197
0.038,0.070,0.910,-1.648,-1.160,-3.601
-0.033,0.151,0.958,-1.770,5.371,-3.601
-0.042,0.152,1.090,1.526,10.254,0.793
0.023,0.081,1.195,2.502,3.723,3.723
0.059,0.028,1.122,2.197,-5.371,5.127
0.070,0.021,1.027,1.587,-14.709,0.488
0.033,0.066,0.923,1.709,-13.672,-2.319
-0.002,0.104,0.905,1.770,-6.104,-3.662
-0.042,0.134,0.972,1.892,-1.770,-1.221
-0.020,0.095,1.010,2.625,0.732,3.845
0.015,0.054,0.993,2.686,0.244,3.418
0.013,0.070,0.984,1.831,-0.732,-0.183
-0.017,0.097,0.972,-0.366,-1.343,-0.977
-0.025,0.101,0.995,-2.197,0.793,0.305
0.018,0.076,1.082,-0.732,1.587,1.831
0.048,0.044,1.098,0.977,0.061,2.563
0.049,0.039,1.073,1.770,-8.301,-0.732
-0.020,0.090,0.959,1.160,-11.597,-2.441
-0.044,0.104,0.916,0.488,-10.803,-1.587
-0.034,0.091,0.905,-0.122,-8.972,-0.366
-0.016,0.079,0.906,-1.892,-6.409,0.793
-0.008,0.041,0.878,-2.136,-3.845,0.305
-0.012,0.036,0.899,0.244,7.263,-2.991
-0.018,0.074,1.011,1.465,11.108,-4.578
-0.024,0.117,1.034,0.854,9.155,-4.211
-0.027,0.155,1.070,1.221,6.531,-1.343
-0.003,0.108,1.118,2.258,3.174,2.136
0.017,0.058,1.120,1.709,-10.315,4.089
0.004,0.047,0.937,-0.244,-16.235,2.747
-0.016,0.081,0.843,-5.249,-14.404,0.488
-0.034,0.077,0.818,-6.836,-6.836,0.366
-0.027,0.065,0.910,-4.395,10.681,-1.282
0.007,0.080,1.113,-2.625,13.977,-1.831
0.022,0.081,1.156,0.916,8.972,-1.648
0.016,0.073,1.141,2.991,3.784,-1.831

-0.436,-1.059,1.276,6.409,37.170,-1.404
-0.345,-1.206,1.332,6.592,34.058,-2.808
-0.052,-1.205,1.301,2.380,25.146,-7.935
0.099,-1.041,1.250,-8.301,5.127,-20.691
0.163,-0.428,0.856,-6.165,2.869,-24.048
0.130,-0.092,0.702,9.277,25.208,-14.099
0.320,0.358,0.861,10.681,28.931,-0.366
0.567,0.466,0.925,-10.559,-16.602,27.466
0.974,0.284,0.111,-22.095,-36.194,20.325
0.866,0.275,-0.428,-27.100,-10.620,-19.409
0.635,0.469,-0.017,-5.066,167.419,-152.771
-0.031,1.226,2.638,11.963,200.012,-195.374
-0.499,1.661,2.943,-0.061,30.884,-175.293
-1.142,2.213,1.151,-9.399,-65.857,-119.629
-1.016,1.954,0.292,12.939,-100.403,32.837
-0.044,0.387,-0.061,25.146,-67.383,87.341
0.390,-0.313,-0.002,20.203,-5.127,89.355
0.645,-0.429,0.256,14.221,20.386,55.969
0.532,-0.120,0.596,3.906,55.542,5.310
0.299,0.211,1.309,1.099,56.641,-0.305
0.265,0.075,1.535,-0.793,47.180,2.441
0.265,-0.103,1.562,-2.258,10.559,2.014
0.165,0.010,1.314,-1.953,-7.690,-5.371
0.043,0.195,1.116,-7.324,-38.879,-7.996
-0.102,0.300,0.714,-13.306,-43.152,-0.427
-0.060,0.179,0.647,-15.320,-14.465,11.536
0.151,-0.099,0.807,-10.681,7.751,9.766
0.179,-0.052,0.894,-1.343,33.325,-5.676
0.030,0.276,1.056,-0.427,36.682,-9.460
-0.018,0.313,1.208,-0.671,34.607,-5.676
0.059,0.044,1.377,-2.808,4.272,11.902
0.128,-0.024,1.258,-4.028,-19.775,15.503
0.168,-0.036,1.033,-7.263,-45.288,10.193
0.067,0.000,0.733,-5.737,-35.645,3.540
-0.010,0.043,0.858,2.930,0.610,-7.935
-0.059,0.055,1.124,3.357,7.263,-9.888
-0.049,0.027,1.103,0.366,3.540,-11.719
-0.092,0.167,0.986,1.038,2.930,-11.963
-0.118,0.236,1.001,-0.122,3.540,-1.709
-0.083,0.163,1.098,-2.747,1.892,4.822
-0.039,0.096,1.086,-2.563,0.000,8.545
0.024,0.052,0.954,2.319,-1.831,7.629
0.024,0.067,0.880,1.770,-0.732,6.042
0.023,0.082,0.901,1.221,11.658,3.540
0.069,0.093,1.229,2.014,12.939,3.296
0.108,0.054,1.287,-1.831,-16.724,6.042
0.140,-0.032,0.880,-6.653,-33.936,5.554
0.103,-0.030,0.632,-9.399,-21.545,-3.723
-0.021,0.084,0.810,-4.272,3.174,-9.094
-0.072,0.166,1.050,6.592,26.794,-9.155
-0.054,0.171,1.227,9.705,20.142,-3.479
-0.001,0.125,1.117,10.132,7.568,2.136
0.042,0.112,0.960,3.784,-7.507,6.287
0.047,0.059,0.900,-1.160,-4.761,6.287
0.030,0.017,0.963,-9.521,2.258,1.526
0.006,0.054,1.007,-9.277,2.686,-2.197
0.001,0.115,0.977,-0.671,0.549,-3.540
-0.003,0.165,0.904,2.136,0.183,-0.610
0.003,0.136,0.939,0.732,2.808,5.188
0.050,0.030,1.079,-0.366,2.502,5.737
0.066,0.020,1.088,-1.953,-1.160,4.089
0.060,0.052,1.041,-6.897,-13.184,0.183
0.007,0.129,0.903,-8.362,-15.991,0.549
-0.017,0.125,0.879,-4.944,-6.409,2.930
-0.012,0.080,1.044,-0.610,1.709,3.174
0.027,0.047,1.127,3.540,3.113,1.343
0.059,0.032,1.030,2.197,-1.404,-1.343
0.028,0.077,0.951,0.977,-0.916,-5.432
-0.059,0.168,0.982,1.526,3.723,-5.005
-0.073,0.156,1.072,3.052,7.874,-1.038
-0.027,0.102,1.139,3.174,4.028,0.366
0.005,0.093,1.090,2.075,-1.831,1.160
0.017,0.081,1.030,-2.014,-9.094,0.549
-0.021,0.103,0.963,-1.709,-8.606,-0.793
-0.049,0.143,0.955,1.831,-4.639,-0.183
-0.039,0.121,0.980,3.906,-3.296,2.625
-0.006,0.073,0.945,2.319,-3.906,4.700
0.008,0.076,0.874,-0.671,-1.343,2.991
-0.007,0.096,0.956,-1.526,6.348,1.587
-0.008,0.099,1.132,0.061,4.150,2.747
0.012,0.067,1.111,2.686,-8.789,4.883
0.046,0.035,0.906,2.563,-11.780,3.784
0.041,0.040,0.873,2.014,-9.033,1.282
0.026,0.068,0.937,2.625,2.319,-3.723
-0.013,0.137,1.109,2.869,2.502,-3.723
-0.010,0.146,1.116,3.052,-8.789,2.197
0.043,0.056,0.952,1.892,-15.381,4.883
0.047,0.039,0.840,-3.235,-14.709,2.930
0.007,0.047,0.803,-3.418,-5.188,0.488
-0.008,0.072,0.922,0.244,12.878,-2.747
0.002,0.085,1.119,1.160,11.963,-2.380
0.009,0.080,1.078,1.160,5.249,-1.770
0.001,0.091,0.977,-0.183,-5.188,-1.770
-0.043,0.137,0.892,-1.526,-3.906,-1.343
-0.043,0.123,0.946,-3.906,2.319,2.563
0.031,0.024,1.049,-3.906,2.930,3.357
0.066,0.013,1.029,-3.174,1.831,-1.526
0.025,0.085,0.949,-1.953,3.906,-5.066
-0.023,0.146,0.982,0.793,11.536,-6.653
-0.066,0.183,1.149,1.770,10.681,-3.296
-0.037,0.129,1.167,0.854,-4.333,5.432
0.039,0.047,0.986,-0.305,-10.986,5.920
0.045,0.052,0.914,-0.977,-11.841,3.662
0.025,0.079,0.900,-0.916,-1.892,-2.441
-0.038,0.114,1.047,-0.305,3.235,-3.357
-0.048,0.119,1.133,1.953,-0.122,-0.244
-0.014,0.115,1.049,2.563,-8.118,2.747
0.006,0.094,0.923,-0.610,-16.296,5.798
0.005,0.049,0.840,-2.686,-10.986,4.395
-0.008,0.061,0.907,-1.526,3.845,0.427
-0.003,0.084,1.029,0.000,6.226,0.671
0.017,0.070,1.030,2.747,2.380,1.831
0.041,0.064,0.969,3.357,0.671,0.549
0.028,0.078,0.958,2.747,0.244,-1.343
0.007,0.086,0.958,-2.197,-0.488,-3.052
-0.011,0.092,0.953,-4.517,-0.854,-2.747
0.003,0.106,0.963,-3.906,-0.183,-1.160
0.018,0.094,0.990,-2.747,-0.061,-0.427
0.013,0.088,1.002,-1.160,0.732,-1.160

-0.548,-1.009,1.344,-10.315,28.442,6.531
-0.507,-1.291,1.343,-24.170,23.193,20.081
-0.232,-1.834,1.318,-19.958,20.874,13.733
-0.091,-1.665,1.181,9.705,27.588,-35.156
-0.026,-0.325,1.016,27.710,41.931,-50.171
-0.012,0.395,1.194,52.917,54.138,0.122
0.275,0.760,1.547,42.908,23.865,50.415
0.583,0.297,1.453,-20.752,-97.656,99.976
1.133,-0.253,0.054,-47.607,-143.372,73.120
1.140,-0.022,-0.986,-53.406,-131.836,26.062
1.009,0.246,-1.302,-6.226,91.187,-82.336
0.668,1.070,1.020,14.038,201.660,-134.155
0.316,1.589,2.300,-3.601,176.941,-164.673
-0.614,1.820,2.948,-19.958,75.256,-142.090
-0.949,1.772,2.411,-1.892,-118.713,-66.589
-0.928,1.515,0.488,14.404,-171.448,-14.160
-0.639,1.027,-0.367,1.709,-149.353,78.552
0.006,-0.074,-0.623,-7.629,-81.299,91.492
0.202,-0.163,-0.027,12.878,56.152,59.387
0.378,0.056,1.271,24.231,81.055,44.617
0.414,-0.012,1.584,21.484,73.425,36.804
0.447,-0.110,1.628,4.761,23.376,21.240
0.416,-0.118,1.328,5.859,6.165,11.108
0.339,-0.106,1.190,7.629,-15.991,-2.991
0.127,-0.005,0.729,1.221,-24.170,-6.958
0.045,0.034,0.602,-5.554,-5.249,-11.230
-0.047,0.211,0.905,-3.723,11.536,-12.695
-0.060,0.265,1.071,-5.127,16.174,-5.554
-0.036,0.245,1.118,-4.211,10.193,1.404
0.020,0.121,1.118,4.578,-3.906,14.648
0.152,-0.040,0.863,5.249,-11.292,16.602
0.169,-0.097,0.758,3.174,-10.193,14.404
0.139,-0.092,0.813,1.648,14.465,-2.380
0.021,0.038,1.176,0.854,20.386,-9.827
-0.021,0.065,1.259,-2.014,4.822,-13.367
-0.056,0.060,1.110,-1.282,-4.944,-12.573
-0.058,0.116,1.013,3.418,-4.578,-9.705
-0.082,0.136,1.037,4.211,2.747,-7.263
-0.102,0.134,1.120,2.197,7.935,-4.333
-0.071,0.167,1.120,1.709,0.549,-0.732
-0.001,0.109,1.008,-4.028,-17.578,9.216
0.092,-0.040,0.787,-5.920,-15.015,9.460
0.075,-0.022,0.812,5.127,15.198,0.732
0.036,0.110,1.111,10.681,25.513,-2.075
0.049,0.102,1.194,11.658,23.987,-1.343
0.073,0.065,1.160,5.493,-0.854,3.296
0.112,-0.040,0.952,1.465,-10.498,4.333
0.121,-0.097,0.898,-3.967,-10.437,-1.099
0.070,-0.014,0.874,-3.967,-3.723,-6.714
0.020,0.073,0.930,-0.732,9.338,-11.780
-0.070,0.177,1.043,0.977,10.620,-9.460
-0.078,0.173,1.077,6.836,6.409,0.854
-0.003,0.071,1.037,7.324,1.526,5.188
0.058,0.019,0.980,1.648,-6.836,6.897
0.140,-0.050,0.929,-1.404,-8.118,4.272
0.135,-0.049,0.909,-2.808,-8.057,-0.244
0.098,-0.016,0.883,-2.136,-4.761,-9.155
-0.031,0.112,0.830,-3.723,-2.136,-10.559
-0.075,0.151,0.847,-7.874,10.376,-5.615
-0.022,0.131,1.109,-6.348,17.090,-1.343
0.038,0.082,1.232,0.732,10.559,4.944
0.071,0.017,1.178,3.418,-0.305,5.371
0.033,0.022,1.054,3.723,-13.184,1.709
-0.017,0.061,0.948,1.709,-10.559,-0.061
-0.006,0.031,0.986,-2.319,-2.075,-2.136
0.004,0.063,0.991,-3.052,-1.099,-3.601
-0.013,0.125,0.972,-2.563,-0.793,-3.784
0.028,0.082,1.036,0.488,-0.854,2.686
0.076,0.007,1.049,0.854,-4.211,5.127
0.105,-0.038,0.992,-1.221,-12.390,0.671
0.040,-0.004,0.875,-2.747,-10.132,-4.456
-0.024,0.074,0.912,-3.296,2.686,-10.376
-0.071,0.170,1.072,-2.441,6.165,-7.812
-0.023,0.117,1.125,1.953,2.502,1.648
0.054,0.004,1.021,2.930,-1.526,2.136
0.043,0.013,0.959,4.028,1.343,-3.357
-0.012,0.049,1.010,3.357,5.066,-5.798
-0.031,0.063,1.056,0.610,4.883,-7.263
-0.046,0.161,1.046,1.953,1.892,-5.066
-0.044,0.181,1.026,4.028,-1.343,-0.427
-0.025,0.146,1.007,3.174,-8.179,10.071
0.020,-0.016,0.906,1.282,-8.789,11.414
0.032,-0.060,0.914,1.343,1.160,3.418
0.045,0.041,1.043,1.953,4.578,-1.160
0.049,0.071,1.069,1.038,-1.221,-1.709
0.044,0.065,0.992,0.183,-5.920,0.122
0.026,0.046,0.937,-0.916,-6.409,1.770
-0.005,0.030,0.928,-0.305,-1.892,0.854
0.004,0.036,0.966,-0.427,4.883,-1.526
0.023,0.060,1.015,-0.854,4.883,-1.892
0.018,0.073,1.028,-0.244,3.662,-1.465
0.007,0.075,1.016,2.502,0.244,0.610
0.006,0.038,0.940,2.991,0.610,1.221
0.026,0.028,0.933,1.953,5.371,0.488
0.058,0.037,1.000,0.366,6.470,-0.122
0.055,0.043,1.051,-0.305,3.357,-0.610
0.026,0.053,1.074,0.793,-0.793,-0.916
0.010,0.050,1.020,0.977,-7.751,-1.099
-0.001,0.039,0.912,-0.122,-8.118,-0.977
0.008,0.041,0.888,-3.479,-4.333,-0.916
0.009,0.059,0.914,-4.395,-1.282,-1.038
-0.004,0.056,0.955,-4.089,1.526,-1.099
-0.018,0.049,0.995,-1.709,3.052,-1.648
-0.020,0.062,1.019,-1.282,1.526,-1.709
-0.004,0.056,1.011,-2.747,-2.502,-0.610
0.019,0.078,1.011,-3.845,-4.150,-0.244
0.014,0.077,1.041,-6.287,-8.423,1.465
0.007,0.057,1.044,-7.629,-12.085,2.136
0.017,0.040,0.992,-6.531,-12.695,1.953
0.052,-0.000,0.939,-3.784,-7.202,0.366
0.054,0.032,0.959,2.014,5.310,-4.089
0.010,0.091,1.022,2.808,8.545,-4.211
-0.020,0.099,1.052,3.235,10.010,-3.235
-0.003,0.098,1.129,5.005,7.385,0.244
0.043,0.053,1.102,3.174,0.610,2.563
0.082,0.007,1.024,-3.662,-11.841,2.075
0.080,0.002,0.967,-4.089,-11.536,-1.282
0.032,0.044,0.977,-1.465,-6.897,-7.202
-0.075,0.124,0.937,-0.305,-4.272,-7.385

